onset	duration	trial_type	correct_response	accuracy	response_time	stimulus	position
4.026	1.8	no_response	n/a	1.0	n/a	c	TR
5.825	2.0	1-back	0.0	1.0	0.731	g	BL
7.824	2.0	1-back	0.0	0.0	n/a	p	TR
9.824	2.0	1-back	1.0	1.0	1.044	p	BL
11.823	2.0	1-back	0.0	0.0	n/a	t	TL
13.822	2.0	1-back	0.0	1.0	0.653	v	BR
15.821	2.0	1-back	1.0	1.0	0.658	v	TL
17.82	2.0	1-back	0.0	1.0	0.944	s	BL
19.819	2.0	1-back	1.0	1.0	0.839	s	TR
21.818	2.0	1-back	0.0	1.0	0.911	x	BR
23.817	2.0	1-back	0.0	1.0	1.012	n	TL
25.816	2.0	1-back	1.0	1.0	0.964	n	BR
27.815	2.0	1-back	0.0	1.0	0.66	f	TR
29.814	2.0	1-back	1.0	1.0	0.634	f	TL
31.813	2.0	1-back	0.0	1.0	0.716	l	TR
33.812	2.0	1-back	0.0	1.0	0.732	r	BL
35.811	2.0	1-back	0.0	1.0	1.037	z	TR
37.811	2.0	1-back	1.0	1.0	0.717	z	TL
39.81	2.0	1-back	0.0	1.0	0.921	c	TR
41.809	2.0	1-back	1.0	1.0	0.828	c	BL
43.808	2.0	1-back	0.0	1.0	0.597	g	TR
45.807	2.0	1-back	1.0	1.0	0.912	g	BR
47.806	2.0	1-back	0.0	1.0	0.942	x	BL
49.805	2.0	1-back	0.0	1.0	0.828	t	TL
51.804	2.0	1-back	1.0	1.0	0.715	t	BL
53.803	2.0	1-back	0.0	0.0	0.813	r	BR
55.802	2.0	1-back	0.0	0.0	1.184	p	BL
57.801	2.0	1-back	0.0	1.0	0.946	v	TL
59.8	2.0	1-back	0.0	1.0	0.945	s	TR
61.799	2.0	1-back	1.0	1.0	0.747	s	BR
63.799	2.0	1-back	0.0	1.0	0.847	x	BL
65.798	2.0	1-back	1.0	1.0	0.792	x	TL
67.797	2.0	1-back	0.0	1.0	0.97	l	TR
69.796	2.0	1-back	1.0	1.0	0.636	l	BL
71.795	2.0	1-back	0.0	1.0	0.78	n	BR
73.794	2.0	1-back	1.0	1.0	0.517	n	TL
75.793	2.0	1-back	0.0	1.0	0.771	z	BR
77.792	2.0	1-back	1.0	1.0	0.605	z	TL
79.791	2.0	1-back	0.0	1.0	0.71	c	BR
81.79	2.0	1-back	0.0	1.0	0.681	g	BL
83.789	2.0	1-back	0.0	1.0	0.897	p	TL
85.788	2.0	1-back	0.0	1.0	0.967	t	TR
87.787	2.0	1-back	0.0	1.0	0.781	v	BR
89.787	2.0	1-back	0.0	1.0	0.781	f	TL
91.786	2.0	1-back	1.0	1.0	0.694	f	TR
93.785	2.0	1-back	0.0	1.0	0.677	l	BR
95.784	2.0	1-back	0.0	1.0	0.78	r	BL
97.783	2.0	1-back	1.0	1.0	0.829	r	BR
103.83	2.0	baseline	1.0	1.0	0.529	redcross.bmp	n/a
105.879	2.0	baseline	n/a	1.0	n/a	blackcross.bmp	n/a
107.928	2.0	baseline	1.0	1.0	0.375	redcross.bmp	n/a
109.977	2.0	baseline	n/a	1.0	n/a	blackcross.bmp	n/a
112.026	2.0	baseline	n/a	1.0	n/a	blackcross.bmp	n/a
114.075	2.0	baseline	1.0	1.0	0.42	redcross.bmp	n/a
116.124	2.0	baseline	n/a	1.0	n/a	blackcross.bmp	n/a
118.173	2.0	baseline	1.0	1.0	0.506	redcross.bmp	n/a
120.222	2.0	baseline	n/a	1.0	n/a	blackcross.bmp	n/a
122.271	2.0	baseline	n/a	1.0	n/a	blackcross.bmp	n/a
124.32	2.0	baseline	n/a	1.0	n/a	blackcross.bmp	n/a
126.369	2.0	baseline	n/a	1.0	n/a	blackcross.bmp	n/a
132.417	1.8	no_response	n/a	1.0	n/a	r	TR
134.216	1.8	no_response	n/a	0.0	1.092	p	BL
136.015	2.0	2-back	0.0	1.0	0.981	s	BL
138.014	2.0	2-back	1.0	0.0	0.879	p	TR
140.013	2.0	2-back	0.0	1.0	0.724	c	TL
142.012	2.0	2-back	0.0	1.0	1.015	g	TL
144.011	2.0	2-back	1.0	1.0	0.899	c	BL
146.01	2.0	2-back	0.0	1.0	0.727	f	TR
148.01	2.0	2-back	0.0	1.0	0.621	x	TR
150.009	2.0	2-back	0.0	1.0	0.597	z	TL
152.008	2.0	2-back	1.0	0.0	0.784	x	BR
154.007	2.0	2-back	0.0	0.0	0.639	g	BL
156.006	2.0	2-back	0.0	1.0	0.794	v	TL
158.005	2.0	2-back	1.0	1.0	0.682	g	TL
160.004	2.0	2-back	1.0	1.0	0.701	v	TR
162.003	2.0	2-back	0.0	1.0	0.85	z	BR
164.002	2.0	2-back	0.0	1.0	0.822	n	TL
166.001	2.0	2-back	1.0	1.0	0.749	z	TL
168.0	2.0	2-back	0.0	0.0	1.021	s	BL
169.999	2.0	2-back	1.0	1.0	0.8	z	BR
171.998	2.0	2-back	0.0	1.0	0.921	t	TL
173.997	2.0	2-back	0.0	0.0	0.912	f	BL
175.997	2.0	2-back	1.0	1.0	0.837	t	BR
177.996	2.0	2-back	0.0	1.0	0.902	r	BR
179.995	2.0	2-back	0.0	0.0	0.885	c	TR
181.994	2.0	2-back	1.0	1.0	0.728	r	BL
183.993	2.0	2-back	0.0	0.0	0.809	f	BR
185.992	2.0	2-back	0.0	0.0	0.704	t	TR
187.991	2.0	2-back	1.0	1.0	0.679	f	BL
189.99	2.0	2-back	0.0	0.0	0.725	c	BR
191.989	2.0	2-back	0.0	1.0	0.99	l	BR
193.988	2.0	2-back	0.0	0.0	0.813	n	TR
195.987	2.0	2-back	1.0	1.0	0.988	l	TL
197.986	2.0	2-back	0.0	0.0	1.078	s	BR
199.985	2.0	2-back	0.0	0.0	0.642	g	TR
201.985	2.0	2-back	1.0	1.0	0.625	s	TL
203.984	2.0	2-back	0.0	0.0	0.638	l	BL
205.983	2.0	2-back	0.0	0.0	0.651	r	TR
207.982	2.0	2-back	0.0	0.0	0.796	x	BR
209.981	2.0	2-back	0.0	0.0	0.525	t	TL
211.98	2.0	2-back	1.0	1.0	0.563	x	TR
213.979	2.0	2-back	0.0	0.0	0.708	n	BL
215.978	2.0	2-back	0.0	0.0	0.628	p	BR
217.977	2.0	2-back	1.0	1.0	0.711	n	TR
219.976	2.0	2-back	1.0	1.0	0.71	p	BL
221.975	2.0	2-back	0.0	0.0	0.748	v	BL
223.974	2.0	2-back	0.0	1.0	0.874	l	TL
225.973	2.0	2-back	1.0	1.0	0.874	v	BR
232.02	2.0	baseline	n/a	1.0	n/a	blackcross.bmp	n/a
234.069	2.0	baseline	1.0	1.0	0.42	n/a	n/a
236.118	2.0	baseline	n/a	1.0	n/a	blackcross.bmp	n/a
238.168	2.0	baseline	n/a	0.0	0.044	blackcross.bmp	n/a
240.217	2.0	baseline	n/a	1.0	n/a	blackcross.bmp	n/a
242.266	2.0	baseline	1.0	1.0	0.395	n/a	n/a
244.315	2.0	baseline	n/a	1.0	n/a	blackcross.bmp	n/a
246.364	2.0	baseline	n/a	1.0	n/a	blackcross.bmp	n/a
248.413	2.0	baseline	1.0	1.0	0.342	n/a	n/a
250.462	2.0	baseline	1.0	1.0	0.536	n/a	n/a
252.511	2.0	baseline	n/a	1.0	n/a	blackcross.bmp	n/a
254.56	2.0	baseline	n/a	1.0	n/a	blackcross.bmp	n/a
