onset	duration	trial_type	correct_response	accuracy	response_time	stimulus	position
4.026	1.8	no_response	n/a	1.0	n/a	c	TR
5.825	2.0	1-back	0.0	1.0	0.627	g	BL
7.825	2.0	1-back	0.0	1.0	0.559	p	TR
9.824	2.0	1-back	1.0	1.0	0.512	p	BL
11.823	2.0	1-back	0.0	1.0	0.544	t	TL
13.822	2.0	1-back	0.0	1.0	0.508	v	BR
15.821	2.0	1-back	1.0	1.0	0.455	v	TL
17.82	2.0	1-back	0.0	1.0	0.454	s	BL
19.819	2.0	1-back	1.0	1.0	0.599	s	TR
21.818	2.0	1-back	0.0	1.0	0.553	x	BR
23.817	2.0	1-back	0.0	1.0	0.503	n	TL
25.816	2.0	1-back	1.0	1.0	0.499	n	BR
27.815	2.0	1-back	0.0	1.0	0.583	f	TR
29.814	2.0	1-back	1.0	1.0	0.527	f	TL
31.813	2.0	1-back	0.0	1.0	0.508	l	TR
33.812	2.0	1-back	0.0	1.0	0.558	r	BL
35.811	2.0	1-back	0.0	1.0	0.502	z	TR
37.811	2.0	1-back	1.0	1.0	0.402	z	TL
39.81	2.0	1-back	0.0	1.0	0.546	c	TR
41.809	2.0	1-back	1.0	1.0	0.605	c	BL
43.808	2.0	1-back	0.0	1.0	0.451	g	TR
45.807	2.0	1-back	1.0	1.0	0.731	g	BR
47.806	2.0	1-back	0.0	1.0	0.502	x	BL
49.805	2.0	1-back	0.0	1.0	0.561	t	TL
51.804	2.0	1-back	1.0	1.0	0.581	t	BL
53.803	2.0	1-back	0.0	1.0	0.463	r	BR
55.802	2.0	1-back	0.0	1.0	0.516	p	BL
57.801	2.0	1-back	0.0	1.0	0.551	v	TL
59.8	2.0	1-back	0.0	1.0	0.565	s	TR
61.799	2.0	1-back	1.0	1.0	0.693	s	BR
63.798	2.0	1-back	0.0	1.0	0.502	x	BL
65.797	2.0	1-back	1.0	1.0	0.597	x	TL
67.797	2.0	1-back	0.0	1.0	0.524	l	TR
69.796	2.0	1-back	1.0	0.0	0.528	l	BL
71.795	2.0	1-back	0.0	1.0	0.571	n	BR
73.794	2.0	1-back	1.0	1.0	0.534	n	TL
75.793	2.0	1-back	0.0	1.0	0.572	z	BR
77.792	2.0	1-back	1.0	1.0	0.536	z	TL
79.791	2.0	1-back	0.0	1.0	0.531	c	BR
81.79	2.0	1-back	0.0	1.0	0.63	g	BL
83.789	2.0	1-back	0.0	1.0	0.539	p	TL
85.788	2.0	1-back	0.0	1.0	0.651	t	TR
87.787	2.0	1-back	0.0	1.0	0.566	v	BR
89.786	2.0	1-back	0.0	1.0	0.621	f	TL
91.785	2.0	1-back	1.0	1.0	0.509	f	TR
93.784	2.0	1-back	0.0	1.0	0.503	l	BR
95.783	2.0	1-back	0.0	1.0	0.571	r	BL
97.783	2.0	1-back	1.0	1.0	0.666	r	BR
103.829	2.0	baseline	1.0	1.0	0.335	redcross.bmp	n/a
105.878	2.0	baseline	n/a	1.0	n/a	blackcross.bmp	n/a
107.928	2.0	baseline	1.0	1.0	0.33	redcross.bmp	n/a
109.977	2.0	baseline	n/a	1.0	n/a	blackcross.bmp	n/a
112.026	2.0	baseline	n/a	1.0	n/a	blackcross.bmp	n/a
114.075	2.0	baseline	1.0	1.0	0.483	redcross.bmp	n/a
116.124	2.0	baseline	n/a	1.0	n/a	blackcross.bmp	n/a
118.173	2.0	baseline	1.0	1.0	0.419	redcross.bmp	n/a
120.222	2.0	baseline	n/a	1.0	n/a	blackcross.bmp	n/a
122.271	2.0	baseline	n/a	1.0	n/a	blackcross.bmp	n/a
124.32	2.0	baseline	n/a	1.0	n/a	blackcross.bmp	n/a
126.369	2.0	baseline	n/a	1.0	n/a	blackcross.bmp	n/a
132.416	1.8	no_response	n/a	1.0	n/a	r	TR
134.216	1.8	no_response	n/a	1.0	n/a	p	BL
136.015	2.0	2-back	0.0	1.0	0.561	s	BL
138.014	2.0	2-back	1.0	1.0	0.478	p	TR
140.013	2.0	2-back	0.0	1.0	0.699	c	TL
142.012	2.0	2-back	0.0	1.0	0.625	g	TL
144.011	2.0	2-back	1.0	1.0	0.443	c	BL
146.01	2.0	2-back	0.0	1.0	0.459	f	TR
148.009	2.0	2-back	0.0	1.0	0.42	x	TR
150.008	2.0	2-back	0.0	1.0	0.499	z	TL
152.007	2.0	2-back	1.0	0.0	0.515	x	BR
154.006	2.0	2-back	0.0	1.0	0.512	g	BL
156.005	2.0	2-back	0.0	1.0	0.506	v	TL
158.004	2.0	2-back	1.0	1.0	0.534	g	TL
160.003	2.0	2-back	1.0	0.0	0.471	v	TR
162.003	2.0	2-back	0.0	1.0	0.459	z	BR
164.002	2.0	2-back	0.0	1.0	0.435	n	TL
166.001	2.0	2-back	1.0	1.0	0.472	z	TL
168.0	2.0	2-back	0.0	1.0	0.371	s	BL
169.999	2.0	2-back	1.0	0.0	0.719	z	BR
171.998	2.0	2-back	0.0	1.0	0.373	t	TL
173.997	2.0	2-back	0.0	1.0	0.613	f	BL
175.996	2.0	2-back	1.0	1.0	0.461	t	BR
177.995	2.0	2-back	0.0	1.0	0.439	r	BR
179.994	2.0	2-back	0.0	1.0	0.551	c	TR
181.993	2.0	2-back	1.0	0.0	0.604	r	BL
183.992	2.0	2-back	0.0	0.0	0.692	f	BR
185.991	2.0	2-back	0.0	1.0	0.487	t	TR
187.99	2.0	2-back	1.0	1.0	0.573	f	BL
189.989	2.0	2-back	0.0	1.0	0.327	c	BR
191.989	2.0	2-back	0.0	1.0	0.414	l	BR
193.988	2.0	2-back	0.0	1.0	0.443	n	TR
195.987	2.0	2-back	1.0	1.0	0.448	l	TL
197.986	2.0	2-back	0.0	1.0	0.368	s	BR
199.985	2.0	2-back	0.0	1.0	0.397	g	TR
201.984	2.0	2-back	1.0	1.0	0.481	s	TL
203.983	2.0	2-back	0.0	1.0	0.41	l	BL
205.982	2.0	2-back	0.0	1.0	0.482	r	TR
207.981	2.0	2-back	0.0	1.0	0.514	x	BR
209.98	2.0	2-back	0.0	1.0	0.468	t	TL
211.979	2.0	2-back	1.0	1.0	0.468	x	TR
213.978	2.0	2-back	0.0	1.0	0.501	n	BL
215.977	2.0	2-back	0.0	1.0	0.495	p	BR
217.976	2.0	2-back	1.0	1.0	0.483	n	TR
219.975	2.0	2-back	1.0	0.0	0.407	p	BL
221.975	2.0	2-back	0.0	1.0	0.443	v	BL
223.974	2.0	2-back	0.0	1.0	0.449	l	TL
225.973	2.0	2-back	1.0	1.0	0.345	v	BR
232.02	2.0	baseline	n/a	1.0	n/a	blackcross.bmp	n/a
234.069	2.0	baseline	1.0	1.0	0.44	n/a	n/a
236.118	2.0	baseline	n/a	1.0	n/a	blackcross.bmp	n/a
238.167	2.0	baseline	n/a	1.0	n/a	blackcross.bmp	n/a
240.216	2.0	baseline	n/a	1.0	n/a	blackcross.bmp	n/a
242.265	2.0	baseline	1.0	1.0	0.443	n/a	n/a
244.314	2.0	baseline	n/a	1.0	n/a	blackcross.bmp	n/a
246.363	2.0	baseline	n/a	1.0	n/a	blackcross.bmp	n/a
248.412	2.0	baseline	1.0	1.0	0.402	n/a	n/a
250.461	2.0	baseline	1.0	1.0	0.546	n/a	n/a
252.51	2.0	baseline	n/a	1.0	n/a	blackcross.bmp	n/a
254.559	2.0	baseline	n/a	1.0	n/a	blackcross.bmp	n/a
