onset	duration	trial_type	correct_response	accuracy	response_time	stimulus	position
4.033	1.8	no_response	n/a	1.0	n/a	c	BL
5.839	1.8	no_response	n/a	1.0	n/a	l	TR
7.645	2.0	2-back	1.0	1.0	0.639	v	BL
9.651	2.0	2-back	1.0	0.0	n/a	p	TR
11.657	2.0	2-back	0.0	1.0	0.537	r	TL
13.663	2.0	2-back	0.0	0.0	0.562	t	BR
15.67	2.0	2-back	1.0	1.0	0.573	n	TL
17.676	2.0	2-back	0.0	1.0	0.655	s	TR
19.682	2.0	2-back	0.0	0.0	0.459	f	BL
21.688	2.0	2-back	1.0	0.0	0.788	x	TR
23.695	2.0	2-back	0.0	0.0	0.724	v	BR
25.701	2.0	2-back	0.0	1.0	0.934	p	TL
27.707	2.0	2-back	1.0	1.0	0.828	f	BR
29.713	2.0	2-back	1.0	1.0	0.723	n	TL
31.72	2.0	2-back	0.0	0.0	0.706	x	TR
33.726	2.0	2-back	1.0	1.0	0.802	t	TL
35.732	2.0	2-back	0.0	1.0	0.682	s	BL
37.738	2.0	2-back	0.0	1.0	0.79	l	TR
39.745	2.0	2-back	1.0	0.0	n/a	f	BL
41.751	2.0	2-back	1.0	0.0	0.551	c	TR
43.757	2.0	2-back	0.0	1.0	0.657	r	TL
45.763	2.0	2-back	1.0	1.0	0.48	g	TR
47.77	2.0	2-back	0.0	1.0	0.669	s	BL
49.776	2.0	2-back	0.0	1.0	0.518	r	BR
51.782	2.0	2-back	1.0	0.0	0.872	v	BL
53.788	2.0	2-back	0.0	1.0	0.537	p	BL
55.795	2.0	2-back	0.0	0.0	0.819	t	TL
57.801	2.0	2-back	1.0	0.0	1.02	x	BL
59.807	2.0	2-back	0.0	1.0	0.85	z	BR
61.813	2.0	2-back	0.0	1.0	0.984	t	TR
63.82	2.0	2-back	0.0	0.0	0.769	g	TL
65.826	2.0	2-back	1.0	1.0	0.789	c	TR
67.832	2.0	2-back	0.0	0.0	0.854	p	BL
69.838	2.0	2-back	0.0	1.0	0.673	s	BR
71.845	2.0	2-back	0.0	0.0	0.776	v	TL
73.851	2.0	2-back	1.0	0.0	0.606	n	BR
75.857	2.0	2-back	0.0	1.0	0.699	c	BL
77.863	2.0	2-back	0.0	1.0	0.719	l	TL
79.87	2.0	2-back	0.0	1.0	0.749	x	BR
81.876	2.0	2-back	1.0	0.0	0.758	z	TL
83.882	2.0	2-back	0.0	0.0	0.695	g	TR
85.888	2.0	2-back	0.0	1.0	0.501	f	BR
87.895	2.0	2-back	0.0	0.0	0.749	z	TL
89.901	2.0	2-back	1.0	0.0	0.671	l	BR
91.907	2.0	2-back	0.0	1.0	0.565	r	TR
93.913	2.0	2-back	1.0	0.0	0.614	z	BR
95.92	2.0	2-back	0.0	1.0	1.01	n	BL
97.926	2.0	2-back	1.0	0.0	0.988	g	BR
103.963	2.0	baseline	n/a	1.0	n/a	blackcross.bmp	n/a
106.02	2.0	baseline	n/a	1.0	n/a	blackcross.bmp	n/a
108.076	2.0	baseline	n/a	1.0	n/a	blackcross.bmp	n/a
110.132	2.0	baseline	1.0	1.0	0.738	redcross.bmp	n/a
112.189	2.0	baseline	n/a	1.0	n/a	blackcross.bmp	n/a
114.245	2.0	baseline	1.0	1.0	0.42	redcross.bmp	n/a
116.302	2.0	baseline	n/a	1.0	n/a	blackcross.bmp	n/a
118.358	2.0	baseline	n/a	1.0	n/a	blackcross.bmp	n/a
120.414	2.0	baseline	1.0	1.0	0.548	redcross.bmp	n/a
122.471	2.0	baseline	n/a	1.0	n/a	blackcross.bmp	n/a
124.527	2.0	baseline	n/a	1.0	n/a	blackcross.bmp	n/a
126.584	2.0	baseline	1.0	1.0	0.608	redcross.bmp	n/a
132.634	1.8	no_response	n/a	1.0	n/a	p	TR
134.44	2.0	1-back	0.0	0.0	n/a	f	BL
136.446	2.0	1-back	1.0	1.0	0.886	n	BL
138.452	2.0	1-back	0.0	1.0	0.931	x	TR
140.458	2.0	1-back	0.0	1.0	0.667	c	TL
142.465	2.0	1-back	1.0	1.0	0.719	p	TL
144.471	2.0	1-back	0.0	1.0	0.648	n	BL
146.477	2.0	1-back	0.0	1.0	0.546	c	TR
148.483	2.0	1-back	1.0	0.0	0.645	g	TR
150.49	2.0	1-back	0.0	1.0	0.897	n	TL
152.496	2.0	1-back	0.0	1.0	0.692	s	BR
154.502	2.0	1-back	0.0	0.0	0.689	x	BL
156.508	2.0	1-back	0.0	1.0	0.792	t	TL
158.514	2.0	1-back	1.0	1.0	0.693	g	TL
160.521	2.0	1-back	0.0	1.0	0.51	p	BR
162.527	2.0	1-back	0.0	1.0	0.926	c	TL
164.533	2.0	1-back	1.0	0.0	0.892	r	TL
166.539	2.0	1-back	0.0	1.0	0.827	t	BL
168.546	2.0	1-back	1.0	1.0	0.868	v	BL
170.552	2.0	1-back	0.0	1.0	0.6	g	BR
172.558	2.0	1-back	0.0	1.0	1.136	p	TL
174.564	2.0	1-back	0.0	1.0	0.754	x	BR
176.571	2.0	1-back	1.0	1.0	0.841	z	BR
178.577	2.0	1-back	0.0	1.0	0.638	l	TR
180.583	2.0	1-back	1.0	1.0	0.714	v	TR
182.589	2.0	1-back	0.0	1.0	0.812	n	BR
184.596	2.0	1-back	0.0	1.0	0.59	r	BL
186.602	2.0	1-back	1.0	0.0	0.602	s	BL
188.608	2.0	1-back	0.0	1.0	0.764	z	TR
190.614	2.0	1-back	0.0	1.0	0.979	l	TL
192.621	2.0	1-back	0.0	1.0	1.038	g	BR
194.627	2.0	1-back	1.0	1.0	0.813	f	BR
196.633	2.0	1-back	0.0	1.0	0.947	t	TR
198.639	2.0	1-back	0.0	1.0	0.806	z	TL
200.646	2.0	1-back	1.0	1.0	1.019	l	TL
202.652	2.0	1-back	0.0	1.0	0.819	f	BL
204.658	2.0	1-back	0.0	1.0	0.866	t	TR
206.664	2.0	1-back	1.0	1.0	0.873	r	TR
208.671	2.0	1-back	0.0	1.0	0.598	l	BR
210.677	2.0	1-back	1.0	1.0	0.752	z	BR
212.683	2.0	1-back	0.0	1.0	0.702	r	TR
214.689	2.0	1-back	1.0	0.0	0.736	v	TR
216.696	2.0	1-back	0.0	1.0	0.798	s	BL
218.702	2.0	1-back	1.0	1.0	0.669	f	BL
220.708	2.0	1-back	0.0	1.0	0.659	v	TL
222.714	2.0	1-back	0.0	1.0	0.647	x	BR
224.721	2.0	1-back	1.0	0.0	0.788	c	BR
226.727	2.0	1-back	0.0	1.0	0.986	s	BL
232.764	2.0	baseline	n/a	1.0	n/a	blackcross.bmp	n/a
234.821	2.0	baseline	n/a	1.0	n/a	blackcross.bmp	n/a
236.877	2.0	baseline	1.0	1.0	0.399	redcross.bmp	n/a
238.933	2.0	baseline	1.0	1.0	0.4	redcross.bmp	n/a
240.99	2.0	baseline	n/a	1.0	n/a	blackcross.bmp	n/a
243.046	2.0	baseline	n/a	1.0	n/a	blackcross.bmp	n/a
245.103	2.0	baseline	1.0	1.0	0.492	redcross.bmp	n/a
247.159	2.0	baseline	n/a	1.0	n/a	blackcross.bmp	n/a
249.215	2.0	baseline	n/a	1.0	n/a	blackcross.bmp	n/a
251.272	2.0	baseline	n/a	1.0	n/a	blackcross.bmp	n/a
253.328	2.0	baseline	1.0	1.0	0.568	redcross.bmp	n/a
255.385	2.0	baseline	n/a	1.0	n/a	blackcross.bmp	n/a
