onset	duration	trial_type	correct_response	accuracy	response_time	stimulus	position
4.026	1.8	no_response	n/a	1.0	n/a	v	BL
5.825	1.8	no_response	n/a	1.0	n/a	c	BR
7.624	2.0	2-back	1.0	1.0	0.333	g	BL
9.623	2.0	2-back	0.0	0.0	n/a	p	TR
11.622	2.0	2-back	0.0	1.0	0.822	n	TL
13.621	2.0	2-back	1.0	1.0	0.742	x	TR
15.62	2.0	2-back	0.0	1.0	0.815	p	BL
17.619	2.0	2-back	0.0	1.0	1.021	c	TL
19.618	2.0	2-back	0.0	0.0	0.76	l	TL
21.617	2.0	2-back	0.0	1.0	0.641	v	TR
23.616	2.0	2-back	1.0	1.0	0.861	x	TL
25.615	2.0	2-back	1.0	0.0	0.659	g	TR
27.614	2.0	2-back	0.0	1.0	0.895	t	BR
29.614	2.0	2-back	0.0	0.0	0.617	z	BL
31.613	2.0	2-back	1.0	0.0	0.346	n	BR
33.612	2.0	2-back	0.0	1.0	0.728	f	TR
35.611	2.0	2-back	0.0	1.0	0.735	x	TL
37.61	2.0	2-back	0.0	0.0	0.68	n	BL
39.609	2.0	2-back	1.0	0.0	0.63	t	TL
41.608	2.0	2-back	0.0	1.0	0.699	l	BR
43.607	2.0	2-back	0.0	0.0	0.716	r	BL
45.606	2.0	2-back	1.0	0.0	0.482	f	BR
47.605	2.0	2-back	0.0	0.0	0.86	s	BR
49.604	2.0	2-back	0.0	1.0	0.749	v	TL
51.603	2.0	2-back	0.0	1.0	0.996	n	TR
53.602	2.0	2-back	1.0	1.0	0.621	p	TL
55.601	2.0	2-back	0.0	1.0	0.742	s	BL
57.6	2.0	2-back	0.0	1.0	0.862	g	BR
59.599	2.0	2-back	1.0	1.0	0.643	f	BL
61.599	2.0	2-back	0.0	1.0	0.706	r	TR
63.598	2.0	2-back	0.0	0.0	0.595	s	TL
65.597	2.0	2-back	0.0	1.0	0.852	z	BL
67.596	2.0	2-back	1.0	1.0	0.919	c	TL
69.595	2.0	2-back	0.0	1.0	0.842	r	BR
71.594	2.0	2-back	0.0	1.0	0.711	v	TR
73.593	2.0	2-back	1.0	1.0	0.75	l	BR
75.592	2.0	2-back	1.0	0.0	0.674	c	TR
77.591	2.0	2-back	0.0	1.0	0.715	s	BL
79.59	2.0	2-back	0.0	0.0	0.79	t	TL
81.589	2.0	2-back	0.0	1.0	0.895	r	TR
83.588	2.0	2-back	0.0	1.0	0.774	z	BL
85.587	2.0	2-back	1.0	0.0	0.905	l	TR
87.586	2.0	2-back	1.0	1.0	0.922	x	BL
89.585	2.0	2-back	0.0	1.0	0.577	f	BR
91.584	2.0	2-back	0.0	1.0	0.967	p	TR
93.583	2.0	2-back	1.0	0.0	0.748	g	BR
95.583	2.0	2-back	0.0	1.0	0.64	t	BL
97.582	2.0	2-back	1.0	0.0	0.854	z	BR
103.629	2.0	baseline	n/a	1.0	n/a	blackcross.bmp	n/a
105.678	2.0	baseline	n/a	1.0	n/a	blackcross.bmp	n/a
107.727	2.0	baseline	1.0	1.0	0.301	redcross.bmp	n/a
109.776	2.0	baseline	1.0	1.0	0.307	redcross.bmp	n/a
111.825	2.0	baseline	n/a	1.0	n/a	blackcross.bmp	n/a
113.874	2.0	baseline	n/a	1.0	n/a	blackcross.bmp	n/a
115.923	2.0	baseline	n/a	1.0	n/a	blackcross.bmp	n/a
117.972	2.0	baseline	1.0	1.0	0.424	redcross.bmp	n/a
120.021	2.0	baseline	n/a	1.0	n/a	blackcross.bmp	n/a
122.07	2.0	baseline	1.0	1.0	0.283	redcross.bmp	n/a
124.119	2.0	baseline	n/a	1.0	n/a	blackcross.bmp	n/a
126.168	2.0	baseline	n/a	1.0	n/a	blackcross.bmp	n/a
132.215	1.8	no_response	n/a	1.0	n/a	l	TR
134.015	2.0	1-back	1.0	1.0	0.533	x	TR
136.014	2.0	1-back	0.0	1.0	1.049	l	BL
138.013	2.0	1-back	1.0	1.0	0.513	s	BL
140.012	2.0	1-back	0.0	1.0	0.415	g	TL
142.011	2.0	1-back	0.0	1.0	0.438	r	BR
144.01	2.0	1-back	0.0	1.0	0.605	s	TL
146.009	2.0	1-back	0.0	1.0	0.707	z	BL
148.008	2.0	1-back	0.0	1.0	0.504	t	TR
150.007	2.0	1-back	1.0	0.0	0.8	x	TR
152.006	2.0	1-back	0.0	1.0	0.463	n	BR
154.005	2.0	1-back	0.0	1.0	0.572	l	TL
156.004	2.0	1-back	1.0	1.0	0.408	g	TL
158.003	2.0	1-back	0.0	1.0	0.426	r	BR
160.002	2.0	1-back	1.0	0.0	0.471	p	BR
162.001	2.0	1-back	0.0	1.0	0.616	z	TR
164.0	2.0	1-back	0.0	0.0	0.85	r	BL
165.999	2.0	1-back	1.0	1.0	0.659	x	BL
167.999	2.0	1-back	0.0	1.0	0.528	p	TR
169.998	2.0	1-back	0.0	0.0	0.561	c	BL
171.997	2.0	1-back	0.0	0.0	n/a	f	TR
173.996	2.0	1-back	1.0	1.0	0.479	l	TR
175.995	2.0	1-back	1.0	0.0	0.449	t	TR
177.994	2.0	1-back	0.0	1.0	0.738	f	TL
179.993	2.0	1-back	0.0	1.0	0.46	r	BL
181.992	2.0	1-back	1.0	0.0	0.365	s	BL
183.991	2.0	1-back	0.0	1.0	0.463	f	TR
185.99	2.0	1-back	0.0	1.0	0.451	c	BR
187.989	2.0	1-back	1.0	0.0	0.448	z	BR
189.988	2.0	1-back	0.0	1.0	0.164	v	BL
191.987	2.0	1-back	0.0	0.0	0.612	p	TL
193.986	2.0	1-back	1.0	0.0	0.047	t	TL
195.985	2.0	1-back	0.0	1.0	0.29	c	BL
197.984	2.0	1-back	0.0	1.0	0.124	p	BR
199.984	2.0	1-back	0.0	1.0	0.231	v	TL
201.983	2.0	1-back	1.0	0.0	0.678	n	TL
203.982	2.0	1-back	0.0	1.0	0.649	s	BR
205.981	2.0	1-back	1.0	1.0	0.406	z	BR
207.98	2.0	1-back	0.0	1.0	0.528	v	BL
209.979	2.0	1-back	0.0	1.0	0.889	n	BR
211.978	2.0	1-back	0.0	1.0	0.468	t	TL
213.977	2.0	1-back	1.0	0.0	0.396	g	TL
215.976	2.0	1-back	0.0	1.0	0.453	x	TR
217.975	2.0	1-back	1.0	1.0	0.648	g	TR
219.974	2.0	1-back	0.0	1.0	0.665	c	TL
221.973	2.0	1-back	0.0	1.0	0.611	v	BL
223.972	2.0	1-back	0.0	1.0	0.695	f	BR
225.971	2.0	1-back	1.0	0.0	0.547	n	BR
232.018	2.0	baseline	n/a	1.0	n/a	blackcross.bmp	n/a
234.067	2.0	baseline	n/a	1.0	n/a	blackcross.bmp	n/a
236.116	2.0	baseline	1.0	1.0	0.361	redcross.bmp	n/a
238.165	2.0	baseline	1.0	1.0	0.373	redcross.bmp	n/a
240.214	2.0	baseline	n/a	1.0	n/a	blackcross.bmp	n/a
242.263	2.0	baseline	n/a	1.0	n/a	blackcross.bmp	n/a
244.312	2.0	baseline	n/a	1.0	n/a	blackcross.bmp	n/a
246.361	2.0	baseline	n/a	1.0	n/a	blackcross.bmp	n/a
248.411	2.0	baseline	1.0	1.0	0.426	redcross.bmp	n/a
250.46	2.0	baseline	n/a	1.0	n/a	blackcross.bmp	n/a
252.509	2.0	baseline	1.0	1.0	0.332	redcross.bmp	n/a
254.558	2.0	baseline	n/a	1.0	n/a	blackcross.bmp	n/a
