onset	duration	trial_type	correct_response	accuracy	response_time	stimulus	position
4.026	1.8	no_response	n/a	1.0	n/a	c	BL
5.825	1.8	no_response	n/a	1.0	n/a	p	BR
7.624	2.0	2-back	1.0	1.0	0.533	n	BL
9.64	2.0	2-back	0.0	1.0	0.686	x	TR
11.656	2.0	2-back	0.0	1.0	0.659	g	TL
13.671	2.0	2-back	1.0	1.0	0.946	p	TR
15.687	2.0	2-back	1.0	1.0	1.055	c	TL
17.703	2.0	2-back	0.0	1.0	0.784	x	BL
19.719	2.0	2-back	1.0	1.0	0.946	l	TL
21.734	2.0	2-back	0.0	1.0	0.936	v	TR
23.75	2.0	2-back	0.0	1.0	1.151	g	TR
25.766	2.0	2-back	0.0	1.0	1.018	t	BR
27.781	2.0	2-back	0.0	1.0	0.913	z	BL
29.797	2.0	2-back	1.0	1.0	1.018	n	BR
31.813	2.0	2-back	0.0	1.0	0.677	f	TL
33.829	2.0	2-back	0.0	1.0	0.876	n	TR
35.844	2.0	2-back	1.0	1.0	1.023	t	TL
37.86	2.0	2-back	0.0	1.0	0.833	v	BL
39.876	2.0	2-back	1.0	0.0	0.93	l	TL
41.891	2.0	2-back	0.0	0.0	1.002	r	TL
43.907	2.0	2-back	0.0	1.0	0.888	s	BR
45.923	2.0	2-back	0.0	1.0	0.704	v	BL
47.939	2.0	2-back	1.0	1.0	0.772	n	BR
49.954	2.0	2-back	0.0	1.0	0.826	p	TL
51.97	2.0	2-back	0.0	1.0	0.609	s	TR
53.986	2.0	2-back	0.0	1.0	1.174	g	BR
56.002	2.0	2-back	0.0	0.0	n/a	p	BL
58.017	2.0	2-back	1.0	0.0	0.635	f	BR
60.033	2.0	2-back	0.0	1.0	0.439	r	TR
62.049	2.0	2-back	0.0	1.0	0.716	s	BL
64.064	2.0	2-back	1.0	0.0	0.425	z	TR
66.08	2.0	2-back	1.0	1.0	0.727	x	BL
68.096	2.0	2-back	0.0	1.0	0.545	c	TL
70.112	2.0	2-back	0.0	1.0	1.19	r	TR
72.127	2.0	2-back	0.0	1.0	0.774	v	BR
74.143	2.0	2-back	0.0	1.0	0.838	l	TL
76.159	2.0	2-back	1.0	1.0	0.97	c	BR
78.175	2.0	2-back	0.0	1.0	0.795	s	TR
80.19	2.0	2-back	1.0	0.0	0.55	t	BR
82.206	2.0	2-back	0.0	1.0	0.547	r	BL
84.222	2.0	2-back	0.0	1.0	0.933	f	TL
86.237	2.0	2-back	1.0	0.0	0.616	z	BL
88.253	2.0	2-back	0.0	1.0	0.721	l	TR
90.269	2.0	2-back	0.0	1.0	0.491	x	TL
92.285	2.0	2-back	1.0	0.0	0.408	f	TR
94.3	2.0	2-back	0.0	1.0	0.666	g	BR
96.316	2.0	2-back	0.0	1.0	0.853	t	BL
98.332	2.0	2-back	1.0	0.0	0.702	z	BR
104.395	2.0	baseline	n/a	1.0	n/a	blackcross.bmp	n/a
106.444	2.0	baseline	1.0	1.0	0.629	redcross.bmp	n/a
108.493	2.0	baseline	n/a	1.0	n/a	blackcross.bmp	n/a
110.543	2.0	baseline	1.0	1.0	0.944	redcross.bmp	n/a
112.592	2.0	baseline	n/a	1.0	n/a	blackcross.bmp	n/a
114.641	2.0	baseline	n/a	1.0	n/a	blackcross.bmp	n/a
116.69	2.0	baseline	n/a	1.0	n/a	blackcross.bmp	n/a
118.739	2.0	baseline	n/a	1.0	n/a	blackcross.bmp	n/a
120.788	2.0	baseline	1.0	1.0	0.59	redcross.bmp	n/a
122.837	2.0	baseline	n/a	1.0	n/a	blackcross.bmp	n/a
124.886	2.0	baseline	n/a	1.0	n/a	blackcross.bmp	n/a
126.935	2.0	baseline	1.0	1.0	0.633	redcross.bmp	n/a
130.983	1.8	no_response	n/a	1.0	n/a	v	TR
132.782	2.0	1-back	0.0	1.0	0.758	p	TL
134.798	2.0	1-back	0.0	1.0	0.785	z	BL
136.814	2.0	1-back	1.0	1.0	0.772	c	BL
138.83	2.0	1-back	0.0	1.0	0.426	t	TR
140.845	2.0	1-back	0.0	0.0	0.543	l	TL
142.861	2.0	1-back	1.0	1.0	0.882	c	TL
144.877	2.0	1-back	0.0	1.0	0.626	v	BL
146.892	2.0	1-back	0.0	1.0	0.809	n	BR
148.908	2.0	1-back	1.0	0.0	0.801	l	BR
150.924	2.0	1-back	0.0	1.0	0.97	v	TL
152.94	2.0	1-back	0.0	1.0	0.721	c	BR
154.955	2.0	1-back	0.0	1.0	0.918	r	TR
156.971	2.0	1-back	1.0	1.0	0.792	t	TR
158.987	2.0	1-back	0.0	1.0	0.943	n	BL
161.003	2.0	1-back	1.0	1.0	0.813	s	BL
163.018	2.0	1-back	0.0	1.0	0.875	v	TR
165.034	2.0	1-back	0.0	1.0	0.84	p	TL
167.05	2.0	1-back	1.0	1.0	0.608	c	TL
169.065	2.0	1-back	0.0	1.0	0.658	g	TR
171.081	2.0	1-back	1.0	1.0	0.49	z	TR
173.097	2.0	1-back	0.0	1.0	0.675	x	BR
175.113	2.0	1-back	0.0	1.0	0.639	g	BL
177.128	2.0	1-back	0.0	1.0	0.819	l	TL
179.144	2.0	1-back	0.0	1.0	0.924	r	BL
181.16	2.0	1-back	1.0	1.0	0.851	x	BL
183.176	2.0	1-back	0.0	1.0	0.707	f	BR
185.191	2.0	1-back	0.0	1.0	0.83	z	TR
187.207	2.0	1-back	1.0	1.0	0.705	r	TR
189.223	2.0	1-back	0.0	1.0	0.769	f	BL
191.238	2.0	1-back	1.0	0.0	0.785	n	BL
193.254	2.0	1-back	0.0	1.0	0.583	x	TR
195.27	2.0	1-back	1.0	1.0	0.277	t	TR
197.286	2.0	1-back	0.0	1.0	0.424	p	BR
199.301	2.0	1-back	1.0	1.0	0.48	x	BR
201.317	2.0	1-back	0.0	1.0	0.643	t	TL
203.333	2.0	1-back	1.0	1.0	0.384	s	TL
205.349	2.0	1-back	0.0	1.0	0.545	f	BL
207.364	2.0	1-back	0.0	1.0	0.44	l	BR
209.38	2.0	1-back	1.0	1.0	0.578	g	BR
211.396	2.0	1-back	0.0	1.0	0.76	n	TL
213.411	2.0	1-back	0.0	1.0	0.652	s	TR
215.427	2.0	1-back	0.0	1.0	0.396	p	BR
217.443	2.0	1-back	0.0	1.0	0.399	r	TL
219.459	2.0	1-back	1.0	1.0	0.694	s	TL
221.474	2.0	1-back	0.0	1.0	0.3	g	BR
223.49	2.0	1-back	1.0	0.0	0.318	z	BR
225.506	2.0	1-back	0.0	0.0	0.634	f	BL
231.569	2.0	baseline	n/a	1.0	n/a	blackcross.bmp	n/a
233.618	2.0	baseline	1.0	1.0	0.605	redcross.bmp	n/a
235.667	2.0	baseline	n/a	1.0	n/a	blackcross.bmp	n/a
237.716	2.0	baseline	1.0	1.0	0.538	redcross.bmp	n/a
239.765	2.0	baseline	n/a	1.0	n/a	blackcross.bmp	n/a
241.815	2.0	baseline	n/a	1.0	n/a	blackcross.bmp	n/a
243.864	2.0	baseline	1.0	1.0	0.621	redcross.bmp	n/a
245.913	2.0	baseline	n/a	1.0	n/a	blackcross.bmp	n/a
247.962	2.0	baseline	n/a	1.0	n/a	blackcross.bmp	n/a
250.011	2.0	baseline	n/a	1.0	n/a	blackcross.bmp	n/a
252.06	2.0	baseline	1.0	1.0	0.943	redcross.bmp	n/a
254.109	2.0	baseline	n/a	1.0	n/a	blackcross.bmp	n/a
