onset	duration	trial_type	correct_response	accuracy	response_time	stimulus	position
4.026	1.8	no_response	n/a	0.0	1.11	z	TR
5.825	1.8	no_response	n/a	0.0	0.562	n	BL
7.624	2.0	2-back	0.0	1.0	0.552	g	BL
9.64	2.0	2-back	0.0	1.0	0.537	p	TR
11.656	2.0	2-back	1.0	0.0	0.711	g	TL
13.671	2.0	2-back	0.0	1.0	0.553	s	TL
15.687	2.0	2-back	0.0	1.0	1.14	f	BL
17.703	2.0	2-back	1.0	0.0	0.636	s	TR
19.719	2.0	2-back	1.0	0.0	0.437	f	TR
21.734	2.0	2-back	0.0	1.0	0.506	c	TL
23.75	2.0	2-back	0.0	1.0	0.687	x	BR
25.766	2.0	2-back	1.0	1.0	0.512	c	BL
27.782	2.0	2-back	0.0	1.0	0.458	l	TL
29.797	2.0	2-back	0.0	0.0	0.88	v	TL
31.813	2.0	2-back	0.0	1.0	0.436	p	TR
33.829	2.0	2-back	1.0	0.0	0.51	v	BR
35.844	2.0	2-back	0.0	0.0	0.248	c	TL
37.86	2.0	2-back	0.0	1.0	0.375	s	TL
39.876	2.0	2-back	0.0	1.0	0.575	t	BL
41.892	2.0	2-back	0.0	1.0	0.471	x	BR
43.907	2.0	2-back	1.0	1.0	0.431	t	TL
45.923	2.0	2-back	0.0	1.0	0.294	r	BL
47.939	2.0	2-back	0.0	1.0	0.303	n	BR
49.955	2.0	2-back	1.0	0.0	0.434	r	BR
51.97	2.0	2-back	0.0	0.0	0.345	l	TR
53.986	2.0	2-back	0.0	1.0	0.319	v	BL
56.002	2.0	2-back	1.0	1.0	0.573	l	BR
58.018	2.0	2-back	1.0	0.0	0.297	v	TR
60.033	2.0	2-back	0.0	1.0	0.359	s	BL
62.049	2.0	2-back	0.0	1.0	0.329	t	BR
64.065	2.0	2-back	0.0	1.0	0.675	c	BR
66.081	2.0	2-back	1.0	1.0	0.563	t	TR
68.096	2.0	2-back	0.0	1.0	0.515	n	TL
70.112	2.0	2-back	0.0	1.0	0.391	l	BR
72.128	2.0	2-back	1.0	1.0	0.371	n	TR
74.143	2.0	2-back	0.0	1.0	0.059	p	TL
76.159	2.0	2-back	0.0	1.0	0.25	x	BL
78.175	2.0	2-back	1.0	1.0	0.345	p	TR
80.191	2.0	2-back	0.0	1.0	0.047	f	BR
82.206	2.0	2-back	0.0	0.0	0.255	z	TL
84.222	2.0	2-back	1.0	0.0	0.238	f	TR
86.238	2.0	2-back	0.0	0.0	0.425	r	BL
88.254	2.0	2-back	0.0	1.0	0.29	x	BR
90.269	2.0	2-back	1.0	0.0	0.454	r	TR
92.285	2.0	2-back	0.0	1.0	0.45	g	BL
94.301	2.0	2-back	0.0	0.0	0.366	z	BL
96.317	2.0	2-back	1.0	0.0	0.236	g	TL
98.332	2.0	2-back	1.0	0.0	0.247	z	BR
104.396	2.0	baseline	n/a	1.0	n/a	blackcross.bmp	n/a
106.445	2.0	baseline	1.0	1.0	0.42	redcross.bmp	n/a
108.494	2.0	baseline	n/a	1.0	n/a	blackcross.bmp	n/a
110.543	2.0	baseline	n/a	1.0	n/a	blackcross.bmp	n/a
112.592	2.0	baseline	n/a	1.0	n/a	blackcross.bmp	n/a
114.641	2.0	baseline	n/a	1.0	n/a	blackcross.bmp	n/a
116.69	2.0	baseline	1.0	1.0	0.413	redcross.bmp	n/a
118.739	2.0	baseline	n/a	1.0	n/a	blackcross.bmp	n/a
120.788	2.0	baseline	n/a	1.0	n/a	blackcross.bmp	n/a
122.837	2.0	baseline	n/a	1.0	n/a	blackcross.bmp	n/a
124.886	2.0	baseline	1.0	1.0	0.509	redcross.bmp	n/a
126.935	2.0	baseline	1.0	1.0	0.964	redcross.bmp	n/a
132.983	1.8	no_response	n/a	0.0	0.774	l	TR
134.782	2.0	1-back	1.0	1.0	0.681	l	BL
136.798	2.0	1-back	0.0	1.0	0.622	s	TR
138.813	2.0	1-back	0.0	1.0	0.674	z	BL
140.829	2.0	1-back	0.0	1.0	0.598	t	TL
142.845	2.0	1-back	0.0	1.0	0.479	x	BR
144.861	2.0	1-back	1.0	1.0	1.134	x	TL
146.876	2.0	1-back	0.0	1.0	0.682	n	BL
148.892	2.0	1-back	0.0	1.0	0.799	s	TR
150.908	2.0	1-back	0.0	1.0	0.852	l	BR
152.924	2.0	1-back	1.0	1.0	0.75	l	TL
154.939	2.0	1-back	0.0	1.0	0.845	g	BR
156.955	2.0	1-back	1.0	1.0	0.819	g	TR
158.971	2.0	1-back	0.0	1.0	0.701	r	TL
160.987	2.0	1-back	1.0	1.0	0.718	r	TR
163.002	2.0	1-back	0.0	1.0	0.851	x	BL
165.018	2.0	1-back	0.0	1.0	0.759	p	TR
167.034	2.0	1-back	1.0	1.0	0.733	p	TL
169.049	2.0	1-back	0.0	1.0	0.689	c	TR
171.065	2.0	1-back	0.0	0.0	1.036	r	BL
173.081	2.0	1-back	0.0	1.0	0.813	f	TR
175.097	2.0	1-back	1.0	1.0	0.818	f	BR
177.112	2.0	1-back	1.0	1.0	1.021	f	BL
179.128	2.0	1-back	0.0	1.0	0.828	c	TL
181.144	2.0	1-back	0.0	1.0	0.774	z	BL
183.16	2.0	1-back	1.0	1.0	0.555	z	BR
185.175	2.0	1-back	0.0	1.0	0.671	v	BL
187.191	2.0	1-back	0.0	1.0	0.627	p	TL
189.207	2.0	1-back	1.0	1.0	0.598	p	TR
191.223	2.0	1-back	0.0	1.0	0.497	n	BR
193.238	2.0	1-back	0.0	1.0	0.59	s	BL
195.254	2.0	1-back	1.0	1.0	0.651	s	TL
197.27	2.0	1-back	0.0	1.0	0.471	z	TR
199.285	2.0	1-back	0.0	1.0	0.536	v	BL
201.301	2.0	1-back	0.0	1.0	0.578	t	BR
203.317	2.0	1-back	1.0	1.0	0.551	t	TL
205.333	2.0	1-back	1.0	1.0	0.634	t	BR
207.348	2.0	1-back	0.0	1.0	0.475	g	TL
209.364	2.0	1-back	0.0	1.0	0.483	x	BR
211.38	2.0	1-back	0.0	1.0	0.546	g	BL
213.396	2.0	1-back	0.0	1.0	0.603	c	TL
215.411	2.0	1-back	1.0	1.0	0.528	c	TR
217.427	2.0	1-back	0.0	1.0	0.396	v	BR
219.443	2.0	1-back	1.0	1.0	0.46	v	TL
221.459	2.0	1-back	0.0	1.0	0.448	f	TR
223.474	2.0	1-back	0.0	1.0	0.497	r	BR
225.49	2.0	1-back	0.0	1.0	0.57	n	BL
227.506	2.0	1-back	1.0	1.0	0.57	n	BR
233.569	2.0	baseline	n/a	1.0	n/a	blackcross.bmp	n/a
235.618	2.0	baseline	n/a	1.0	n/a	blackcross.bmp	n/a
237.667	2.0	baseline	1.0	1.0	0.364	redcross.bmp	n/a
239.717	2.0	baseline	n/a	1.0	n/a	blackcross.bmp	n/a
241.766	2.0	baseline	n/a	1.0	n/a	blackcross.bmp	n/a
243.815	2.0	baseline	1.0	1.0	0.305	redcross.bmp	n/a
245.864	2.0	baseline	n/a	1.0	n/a	blackcross.bmp	n/a
247.913	2.0	baseline	n/a	1.0	n/a	blackcross.bmp	n/a
249.962	2.0	baseline	n/a	1.0	n/a	blackcross.bmp	n/a
252.011	2.0	baseline	1.0	1.0	0.32	redcross.bmp	n/a
254.06	2.0	baseline	n/a	1.0	n/a	blackcross.bmp	n/a
256.109	2.0	baseline	1.0	1.0	0.446	redcross.bmp	n/a
