onset	duration	trial_type	correct_response	accuracy	response_time	stimulus	position
4.026	1.8	no_response	n/a	1.0	n/a	c	TR
5.825	2.0	1-back	0.0	1.0	0.551	g	BL
7.824	2.0	1-back	0.0	1.0	0.622	p	TR
9.823	2.0	1-back	1.0	1.0	0.63	p	BL
11.822	2.0	1-back	0.0	1.0	0.434	t	TL
13.821	2.0	1-back	0.0	1.0	0.524	v	BR
15.82	2.0	1-back	1.0	1.0	0.56	v	TL
17.819	2.0	1-back	0.0	1.0	0.503	s	BL
19.818	2.0	1-back	1.0	1.0	0.557	s	TR
21.817	2.0	1-back	0.0	1.0	0.573	x	BR
23.816	2.0	1-back	0.0	1.0	0.554	n	TL
25.815	2.0	1-back	1.0	1.0	0.563	n	BR
27.814	2.0	1-back	0.0	1.0	0.517	f	TR
29.814	2.0	1-back	1.0	0.0	0.606	f	TL
31.813	2.0	1-back	0.0	1.0	0.726	l	TR
33.812	2.0	1-back	0.0	1.0	0.816	r	BL
35.811	2.0	1-back	0.0	1.0	0.537	z	TR
37.81	2.0	1-back	1.0	1.0	0.659	z	TL
39.809	2.0	1-back	0.0	1.0	0.517	c	TR
41.808	2.0	1-back	1.0	1.0	0.693	c	BL
43.807	2.0	1-back	0.0	1.0	0.49	g	TR
45.806	2.0	1-back	1.0	1.0	0.844	g	BR
47.805	2.0	1-back	0.0	1.0	0.599	x	BL
49.804	2.0	1-back	0.0	1.0	0.617	t	TL
51.803	2.0	1-back	1.0	1.0	0.603	t	BL
53.802	2.0	1-back	0.0	1.0	0.556	r	BR
55.801	2.0	1-back	0.0	1.0	0.652	p	BL
57.801	2.0	1-back	0.0	1.0	0.555	v	TL
59.8	2.0	1-back	0.0	1.0	0.62	s	TR
61.799	2.0	1-back	1.0	1.0	0.559	s	BR
63.798	2.0	1-back	0.0	1.0	0.61	x	BL
65.797	2.0	1-back	1.0	1.0	0.66	x	TL
67.796	2.0	1-back	0.0	1.0	0.517	l	TR
69.795	2.0	1-back	1.0	1.0	0.768	l	BL
71.794	2.0	1-back	0.0	1.0	0.632	n	BR
73.793	2.0	1-back	1.0	1.0	0.692	n	TL
75.792	2.0	1-back	0.0	1.0	0.594	z	BR
77.791	2.0	1-back	1.0	1.0	0.636	z	TL
79.79	2.0	1-back	0.0	1.0	0.526	c	BR
81.789	2.0	1-back	0.0	1.0	0.532	g	BL
83.789	2.0	1-back	0.0	1.0	0.683	p	TL
85.788	2.0	1-back	0.0	1.0	0.584	t	TR
87.787	2.0	1-back	0.0	1.0	0.531	v	BR
89.786	2.0	1-back	0.0	1.0	0.58	f	TL
91.785	2.0	1-back	1.0	1.0	0.593	f	TR
93.784	2.0	1-back	0.0	1.0	0.59	l	BR
95.783	2.0	1-back	0.0	1.0	0.625	r	BL
97.782	2.0	1-back	1.0	0.0	0.598	r	BR
103.829	2.0	baseline	1.0	1.0	0.38	redcross.bmp	n/a
105.878	2.0	baseline	n/a	1.0	n/a	blackcross.bmp	n/a
107.927	2.0	baseline	1.0	1.0	0.44	redcross.bmp	n/a
109.976	2.0	baseline	n/a	1.0	n/a	blackcross.bmp	n/a
112.025	2.0	baseline	n/a	1.0	n/a	blackcross.bmp	n/a
114.074	2.0	baseline	1.0	1.0	0.453	redcross.bmp	n/a
116.123	2.0	baseline	n/a	1.0	n/a	blackcross.bmp	n/a
118.172	2.0	baseline	1.0	1.0	0.923	redcross.bmp	n/a
120.221	2.0	baseline	n/a	1.0	n/a	blackcross.bmp	n/a
122.27	2.0	baseline	n/a	1.0	n/a	blackcross.bmp	n/a
124.319	2.0	baseline	n/a	1.0	n/a	blackcross.bmp	n/a
126.369	2.0	baseline	n/a	1.0	n/a	blackcross.bmp	n/a
132.416	1.8	no_response	n/a	1.0	n/a	r	TR
134.215	1.8	no_response	n/a	1.0	n/a	p	BL
136.014	2.0	2-back	0.0	1.0	0.778	s	BL
138.013	2.0	2-back	1.0	1.0	0.742	p	TR
140.012	2.0	2-back	0.0	1.0	0.493	c	TL
142.012	2.0	2-back	0.0	1.0	0.751	g	TL
144.011	2.0	2-back	1.0	1.0	0.699	c	BL
146.01	2.0	2-back	0.0	1.0	0.519	f	TR
148.009	2.0	2-back	0.0	1.0	0.632	x	TR
150.008	2.0	2-back	0.0	1.0	0.63	z	TL
152.007	2.0	2-back	1.0	1.0	0.701	x	BR
154.006	2.0	2-back	0.0	1.0	0.515	g	BL
156.005	2.0	2-back	0.0	1.0	0.708	v	TL
158.004	2.0	2-back	1.0	1.0	0.825	g	TL
160.003	2.0	2-back	1.0	1.0	0.84	v	TR
162.002	2.0	2-back	0.0	1.0	0.738	z	BR
164.001	2.0	2-back	0.0	1.0	0.683	n	TL
166.0	2.0	2-back	1.0	1.0	0.722	z	TL
167.999	2.0	2-back	0.0	1.0	0.483	s	BL
169.999	2.0	2-back	1.0	0.0	0.759	z	BR
171.998	2.0	2-back	0.0	1.0	0.763	t	TL
173.997	2.0	2-back	0.0	1.0	0.803	f	BL
175.996	2.0	2-back	1.0	1.0	0.773	t	BR
177.995	2.0	2-back	0.0	1.0	0.886	r	BR
179.994	2.0	2-back	0.0	1.0	0.68	c	TR
181.993	2.0	2-back	1.0	1.0	0.605	r	BL
183.992	2.0	2-back	0.0	1.0	0.561	f	BR
185.991	2.0	2-back	0.0	1.0	0.828	t	TR
187.99	2.0	2-back	1.0	0.0	0.906	f	BL
189.989	2.0	2-back	0.0	1.0	0.969	c	BR
191.988	2.0	2-back	0.0	1.0	0.775	l	BR
193.987	2.0	2-back	0.0	1.0	0.741	n	TR
195.986	2.0	2-back	1.0	1.0	0.826	l	TL
197.986	2.0	2-back	0.0	1.0	0.635	s	BR
199.985	2.0	2-back	0.0	1.0	0.683	g	TR
201.984	2.0	2-back	1.0	1.0	0.747	s	TL
203.983	2.0	2-back	0.0	0.0	0.957	l	BL
205.982	2.0	2-back	0.0	1.0	0.636	r	TR
207.981	2.0	2-back	0.0	1.0	0.766	x	BR
209.98	2.0	2-back	0.0	1.0	0.9	t	TL
211.979	2.0	2-back	1.0	1.0	0.825	x	TR
213.978	2.0	2-back	0.0	1.0	0.557	n	BL
215.977	2.0	2-back	0.0	1.0	0.63	p	BR
217.976	2.0	2-back	1.0	0.0	0.973	n	TR
219.975	2.0	2-back	1.0	1.0	0.758	p	BL
221.974	2.0	2-back	0.0	1.0	0.707	v	BL
223.974	2.0	2-back	0.0	1.0	0.908	l	TL
225.973	2.0	2-back	1.0	1.0	0.953	v	BR
232.02	2.0	baseline	n/a	1.0	n/a	blackcross.bmp	n/a
234.069	2.0	baseline	1.0	1.0	0.409	n/a	n/a
236.118	2.0	baseline	n/a	1.0	n/a	blackcross.bmp	n/a
238.167	2.0	baseline	n/a	1.0	n/a	blackcross.bmp	n/a
240.216	2.0	baseline	n/a	1.0	n/a	blackcross.bmp	n/a
242.265	2.0	baseline	1.0	1.0	0.412	n/a	n/a
244.314	2.0	baseline	n/a	1.0	n/a	blackcross.bmp	n/a
246.363	2.0	baseline	n/a	1.0	n/a	blackcross.bmp	n/a
248.412	2.0	baseline	1.0	1.0	0.435	n/a	n/a
250.461	2.0	baseline	1.0	1.0	0.622	n/a	n/a
252.51	2.0	baseline	n/a	1.0	n/a	blackcross.bmp	n/a
254.559	2.0	baseline	n/a	1.0	n/a	blackcross.bmp	n/a
