onset	duration	trial_type	correct_response	accuracy	response_time	stimulus	position
4.017	1.8	no_response	n/a	1.0	n/a	v	TR
5.822	1.8	no_response	n/a	0.0	0.748	r	BR
7.628	2.0	2-back	1.0	1.0	0.87	v	TL
9.634	2.0	2-back	0.0	1.0	0.828	g	TR
11.64	2.0	2-back	0.0	1.0	0.746	p	BL
13.647	2.0	2-back	1.0	0.0	0.838	g	BR
15.653	2.0	2-back	0.0	1.0	0.592	n	TL
17.659	2.0	2-back	0.0	1.0	0.661	x	TR
19.665	2.0	2-back	0.0	1.0	0.675	l	BR
21.672	2.0	2-back	0.0	1.0	0.663	c	TL
23.678	2.0	2-back	1.0	0.0	0.658	l	BL
25.684	2.0	2-back	1.0	0.0	0.717	c	TR
27.69	2.0	2-back	0.0	1.0	0.764	t	BR
29.697	2.0	2-back	0.0	1.0	0.93	n	TL
31.703	2.0	2-back	1.0	0.0	0.695	t	BR
33.709	2.0	2-back	0.0	0.0	0.794	f	TR
35.715	2.0	2-back	0.0	1.0	0.475	n	BR
37.722	2.0	2-back	0.0	1.0	0.657	x	TL
39.728	2.0	2-back	1.0	0.0	0.726	n	BL
41.734	2.0	2-back	0.0	1.0	0.787	r	TR
43.74	2.0	2-back	0.0	1.0	0.479	f	TL
45.747	2.0	2-back	1.0	0.0	n/a	r	BR
47.753	2.0	2-back	0.0	1.0	0.787	s	TR
49.759	2.0	2-back	0.0	1.0	0.99	v	BL
51.765	2.0	2-back	0.0	1.0	0.981	p	TL
53.772	2.0	2-back	1.0	0.0	0.749	v	TR
55.778	2.0	2-back	0.0	1.0	0.833	s	BL
57.784	2.0	2-back	0.0	0.0	0.831	p	BR
59.791	2.0	2-back	1.0	0.0	0.703	s	TR
61.797	2.0	2-back	0.0	1.0	0.846	g	BL
63.803	2.0	2-back	0.0	1.0	0.712	z	TL
65.809	2.0	2-back	0.0	1.0	1.028	r	BR
67.816	2.0	2-back	1.0	1.0	1.054	z	BL
69.822	2.0	2-back	0.0	1.0	0.858	c	BL
71.828	2.0	2-back	0.0	1.0	0.759	t	BR
73.834	2.0	2-back	1.0	0.0	0.662	c	TL
75.841	2.0	2-back	1.0	0.0	0.642	t	BL
77.847	2.0	2-back	0.0	1.0	0.878	s	BR
79.853	2.0	2-back	0.0	1.0	0.885	x	BL
81.859	2.0	2-back	0.0	1.0	0.923	f	TR
83.866	2.0	2-back	1.0	0.0	0.726	x	TR
85.872	2.0	2-back	1.0	0.0	0.899	f	BR
87.878	2.0	2-back	0.0	1.0	0.777	l	TL
89.884	2.0	2-back	0.0	1.0	0.779	p	BL
91.891	2.0	2-back	1.0	1.0	0.821	l	BL
93.897	2.0	2-back	0.0	1.0	0.707	z	TL
95.903	2.0	2-back	0.0	0.0	n/a	g	TL
97.909	2.0	2-back	1.0	0.0	0.456	z	TR
103.947	2.0	baseline	n/a	0.0	0.718	blackcross.bmp	n/a
106.003	2.0	baseline	1.0	1.0	0.418	redcross.bmp	n/a
108.06	2.0	baseline	n/a	1.0	n/a	blackcross.bmp	n/a
110.116	2.0	baseline	n/a	1.0	n/a	blackcross.bmp	n/a
112.172	2.0	baseline	n/a	1.0	n/a	blackcross.bmp	n/a
114.229	2.0	baseline	1.0	1.0	0.423	redcross.bmp	n/a
116.285	2.0	baseline	n/a	1.0	n/a	blackcross.bmp	n/a
118.342	2.0	baseline	n/a	1.0	n/a	blackcross.bmp	n/a
120.398	2.0	baseline	n/a	1.0	n/a	blackcross.bmp	n/a
122.454	2.0	baseline	n/a	1.0	n/a	blackcross.bmp	n/a
124.511	2.0	baseline	1.0	1.0	0.329	redcross.bmp	n/a
126.567	2.0	baseline	1.0	1.0	0.46	redcross.bmp	n/a
132.618	1.8	no_response	n/a	1.0	n/a	r	TL
134.423	2.0	1-back	1.0	0.0	0.6	r	TR
136.429	2.0	1-back	0.0	1.0	0.621	g	BR
138.436	2.0	1-back	1.0	1.0	0.812	g	TL
140.442	2.0	1-back	0.0	1.0	0.571	f	TR
142.448	2.0	1-back	0.0	1.0	0.615	t	BL
144.454	2.0	1-back	0.0	1.0	0.641	v	TL
146.461	2.0	1-back	0.0	1.0	0.666	p	TR
148.467	2.0	1-back	1.0	1.0	0.685	p	BL
150.473	2.0	1-back	0.0	1.0	0.444	z	BR
152.479	2.0	1-back	0.0	1.0	0.487	s	TR
154.486	2.0	1-back	1.0	1.0	0.551	s	BL
156.492	2.0	1-back	0.0	1.0	0.67	c	TL
158.498	2.0	1-back	1.0	0.0	0.459	c	BR
160.504	2.0	1-back	0.0	1.0	0.71	l	BR
162.511	2.0	1-back	0.0	1.0	0.851	n	BL
164.517	2.0	1-back	0.0	1.0	0.694	v	TL
166.523	2.0	1-back	1.0	1.0	0.831	v	TR
168.529	2.0	1-back	0.0	1.0	0.559	z	BR
170.536	2.0	1-back	0.0	0.0	n/a	s	TL
172.542	2.0	1-back	0.0	1.0	0.655	x	TR
174.548	2.0	1-back	1.0	1.0	0.714	x	BL
176.555	2.0	1-back	1.0	1.0	0.273	x	BR
178.561	2.0	1-back	0.0	1.0	0.337	v	TR
180.567	2.0	1-back	0.0	1.0	0.649	z	TL
182.573	2.0	1-back	1.0	0.0	0.399	z	BR
184.58	2.0	1-back	0.0	1.0	0.281	f	BL
186.586	2.0	1-back	0.0	1.0	0.542	r	TR
188.592	2.0	1-back	1.0	0.0	1.018	r	BL
190.598	2.0	1-back	0.0	1.0	0.64	n	TL
192.605	2.0	1-back	0.0	1.0	0.526	l	BL
194.611	2.0	1-back	1.0	1.0	0.726	l	BR
196.617	2.0	1-back	0.0	1.0	0.662	s	TL
198.623	2.0	1-back	0.0	1.0	0.494	g	TR
200.63	2.0	1-back	0.0	1.0	0.409	c	BL
202.636	2.0	1-back	1.0	1.0	0.623	c	TR
204.642	2.0	1-back	0.0	1.0	0.522	f	BR
206.648	2.0	1-back	1.0	0.0	n/a	f	TL
208.655	2.0	1-back	0.0	1.0	0.572	t	TR
210.661	2.0	1-back	0.0	1.0	0.744	x	BL
212.667	2.0	1-back	0.0	1.0	0.71	p	TL
214.673	2.0	1-back	1.0	1.0	0.736	p	BL
216.68	2.0	1-back	0.0	1.0	0.875	n	BR
218.686	2.0	1-back	1.0	1.0	0.833	n	TL
220.692	2.0	1-back	0.0	1.0	0.788	g	BR
222.698	2.0	1-back	0.0	1.0	0.507	l	BL
224.705	2.0	1-back	0.0	1.0	0.452	t	TR
226.711	2.0	1-back	1.0	1.0	0.894	t	BR
232.748	2.0	baseline	1.0	1.0	0.504	redcross.bmp	n/a
234.805	2.0	baseline	n/a	1.0	n/a	blackcross.bmp	n/a
236.861	2.0	baseline	1.0	1.0	0.452	redcross.bmp	n/a
238.917	2.0	baseline	n/a	1.0	n/a	blackcross.bmp	n/a
240.974	2.0	baseline	n/a	1.0	n/a	blackcross.bmp	n/a
243.03	2.0	baseline	n/a	1.0	n/a	blackcross.bmp	n/a
245.087	2.0	baseline	1.0	1.0	0.451	redcross.bmp	n/a
247.143	2.0	baseline	n/a	1.0	n/a	blackcross.bmp	n/a
249.199	2.0	baseline	n/a	1.0	n/a	blackcross.bmp	n/a
251.256	2.0	baseline	n/a	1.0	n/a	blackcross.bmp	n/a
253.312	2.0	baseline	1.0	1.0	0.427	redcross.bmp	n/a
255.369	2.0	baseline	n/a	1.0	n/a	blackcross.bmp	n/a
