onset	duration	trial_type	correct_response	accuracy	response_time	stimulus	position
4.025	1.8	no_response	n/a	0.0	0.656	r	TR
5.825	1.8	no_response	n/a	0.0	0.708	p	BL
7.624	2.0	2-back	0.0	0.0	0.86	s	BL
9.623	2.0	2-back	1.0	0.0	0.159	p	TR
11.622	2.0	2-back	0.0	1.0	0.469	c	TL
13.621	2.0	2-back	0.0	1.0	0.738	g	TL
15.62	2.0	2-back	1.0	0.0	0.681	c	BL
17.619	2.0	2-back	0.0	0.0	n/a	f	TR
19.618	2.0	2-back	0.0	1.0	0.748	x	TR
21.617	2.0	2-back	0.0	1.0	0.613	z	TL
23.616	2.0	2-back	1.0	1.0	0.794	x	BR
25.615	2.0	2-back	0.0	1.0	0.558	g	BL
27.614	2.0	2-back	0.0	1.0	0.57	v	TL
29.613	2.0	2-back	1.0	1.0	0.539	g	TL
31.613	2.0	2-back	1.0	0.0	0.491	v	TR
33.612	2.0	2-back	0.0	1.0	0.697	z	BR
35.611	2.0	2-back	0.0	1.0	0.607	n	TL
37.61	2.0	2-back	1.0	1.0	0.768	z	TL
39.609	2.0	2-back	0.0	1.0	0.62	s	BL
41.608	2.0	2-back	1.0	0.0	1.023	z	BR
43.607	2.0	2-back	0.0	1.0	0.456	t	TL
45.606	2.0	2-back	0.0	1.0	0.627	f	BL
47.605	2.0	2-back	1.0	1.0	0.913	t	BR
49.604	2.0	2-back	0.0	1.0	0.68	r	BR
51.603	2.0	2-back	0.0	1.0	0.542	c	TR
53.602	2.0	2-back	1.0	1.0	0.623	r	BL
55.601	2.0	2-back	0.0	1.0	0.886	f	BR
57.6	2.0	2-back	0.0	1.0	0.711	t	TR
59.599	2.0	2-back	1.0	1.0	0.643	f	BL
61.599	2.0	2-back	0.0	1.0	0.491	c	BR
63.598	2.0	2-back	0.0	1.0	0.487	l	BR
65.597	2.0	2-back	0.0	1.0	0.663	n	TR
67.596	2.0	2-back	1.0	1.0	0.817	l	TL
69.595	2.0	2-back	0.0	1.0	0.712	s	BR
71.594	2.0	2-back	0.0	1.0	0.639	g	TR
73.593	2.0	2-back	1.0	1.0	0.65	s	TL
75.592	2.0	2-back	0.0	1.0	0.627	l	BL
77.591	2.0	2-back	0.0	1.0	0.71	r	TR
79.59	2.0	2-back	0.0	1.0	0.605	x	BR
81.589	2.0	2-back	0.0	1.0	0.792	t	TL
83.588	2.0	2-back	1.0	1.0	0.876	x	TR
85.587	2.0	2-back	0.0	1.0	0.551	n	BL
87.586	2.0	2-back	0.0	1.0	0.734	p	BR
89.585	2.0	2-back	1.0	0.0	0.744	n	TR
91.584	2.0	2-back	1.0	0.0	0.731	p	BL
93.584	2.0	2-back	0.0	1.0	0.809	v	BL
95.583	2.0	2-back	0.0	1.0	0.773	l	TL
97.582	2.0	2-back	1.0	0.0	0.758	v	BR
103.629	2.0	baseline	n/a	1.0	n/a	blackcross.bmp	n/a
105.678	2.0	baseline	1.0	1.0	0.727	redcross.bmp	n/a
107.727	2.0	baseline	n/a	1.0	n/a	blackcross.bmp	n/a
109.776	2.0	baseline	n/a	1.0	n/a	blackcross.bmp	n/a
111.825	2.0	baseline	n/a	1.0	n/a	blackcross.bmp	n/a
113.874	2.0	baseline	1.0	1.0	0.459	redcross.bmp	n/a
115.923	2.0	baseline	n/a	1.0	n/a	blackcross.bmp	n/a
117.972	2.0	baseline	n/a	1.0	n/a	blackcross.bmp	n/a
120.021	2.0	baseline	1.0	1.0	0.412	redcross.bmp	n/a
122.07	2.0	baseline	1.0	1.0	0.426	redcross.bmp	n/a
124.119	2.0	baseline	n/a	1.0	n/a	blackcross.bmp	n/a
126.168	2.0	baseline	n/a	1.0	n/a	blackcross.bmp	n/a
132.216	1.8	no_response	n/a	0.0	0.958	c	TR
134.015	2.0	1-back	0.0	1.0	0.948	g	BL
136.014	2.0	1-back	0.0	0.0	0.76	p	TR
138.013	2.0	1-back	1.0	1.0	0.895	p	BL
140.012	2.0	1-back	0.0	1.0	0.443	t	TL
142.011	2.0	1-back	0.0	1.0	0.54	v	BR
144.01	2.0	1-back	1.0	0.0	0.585	v	TL
146.009	2.0	1-back	0.0	1.0	0.503	s	BL
148.008	2.0	1-back	1.0	1.0	0.557	s	TR
150.007	2.0	1-back	0.0	1.0	0.38	x	BR
152.006	2.0	1-back	0.0	1.0	0.66	n	TL
154.005	2.0	1-back	1.0	0.0	0.631	n	BR
156.004	2.0	1-back	0.0	1.0	0.464	f	TR
158.003	2.0	1-back	1.0	1.0	0.615	f	TL
160.003	2.0	1-back	0.0	1.0	0.586	l	TR
162.002	2.0	1-back	0.0	1.0	0.481	r	BL
164.001	2.0	1-back	0.0	1.0	0.53	z	TR
166.0	2.0	1-back	1.0	1.0	0.509	z	TL
167.999	2.0	1-back	0.0	1.0	0.538	c	TR
169.998	2.0	1-back	1.0	1.0	0.637	c	BL
171.997	2.0	1-back	0.0	1.0	0.477	g	TR
173.996	2.0	1-back	1.0	1.0	0.808	g	BR
175.995	2.0	1-back	0.0	1.0	0.506	x	BL
177.994	2.0	1-back	0.0	1.0	0.64	t	TL
179.993	2.0	1-back	1.0	1.0	0.631	t	BL
181.992	2.0	1-back	0.0	1.0	0.662	r	BR
183.991	2.0	1-back	0.0	1.0	0.707	p	BL
185.99	2.0	1-back	0.0	1.0	0.6	v	TL
187.989	2.0	1-back	0.0	1.0	0.76	s	TR
189.989	2.0	1-back	1.0	1.0	0.629	s	BR
191.988	2.0	1-back	0.0	1.0	0.621	x	BL
193.987	2.0	1-back	1.0	1.0	0.486	x	TL
195.986	2.0	1-back	0.0	1.0	0.474	l	TR
197.985	2.0	1-back	1.0	1.0	0.612	l	BL
199.984	2.0	1-back	0.0	1.0	0.549	n	BR
201.983	2.0	1-back	1.0	1.0	0.481	n	TL
203.982	2.0	1-back	0.0	1.0	0.51	z	BR
205.981	2.0	1-back	1.0	1.0	0.61	z	TL
207.98	2.0	1-back	0.0	1.0	0.413	c	BR
209.979	2.0	1-back	0.0	1.0	0.488	g	BL
211.978	2.0	1-back	0.0	1.0	0.671	p	TL
213.977	2.0	1-back	0.0	1.0	0.607	t	TR
215.976	2.0	1-back	0.0	1.0	0.525	v	BR
217.975	2.0	1-back	0.0	1.0	0.569	f	TL
219.975	2.0	1-back	1.0	1.0	0.582	f	TR
221.974	2.0	1-back	0.0	1.0	0.43	l	BR
223.973	2.0	1-back	0.0	1.0	0.472	r	BL
225.972	2.0	1-back	1.0	1.0	1.002	r	BR
232.019	2.0	baseline	1.0	1.0	0.378	redcross.bmp	n/a
234.068	2.0	baseline	n/a	1.0	n/a	blackcross.bmp	n/a
236.117	2.0	baseline	1.0	1.0	0.373	redcross.bmp	n/a
238.166	2.0	baseline	n/a	1.0	n/a	blackcross.bmp	n/a
240.215	2.0	baseline	n/a	1.0	n/a	blackcross.bmp	n/a
242.264	2.0	baseline	1.0	1.0	0.487	redcross.bmp	n/a
244.313	2.0	baseline	n/a	1.0	n/a	blackcross.bmp	n/a
246.362	2.0	baseline	1.0	1.0	0.513	redcross.bmp	n/a
248.411	2.0	baseline	n/a	1.0	n/a	blackcross.bmp	n/a
250.46	2.0	baseline	n/a	1.0	n/a	blackcross.bmp	n/a
252.509	2.0	baseline	n/a	1.0	n/a	blackcross.bmp	n/a
254.558	2.0	baseline	n/a	1.0	n/a	blackcross.bmp	n/a
