onset	duration	trial_type	correct_response	accuracy	response_time	stimulus	position
4.042	1.8	no_response	n/a	0.0	0.822	l	TR
5.841	2.0	1-back	1.0	1.0	0.928	l	BL
7.857	2.0	1-back	0.0	1.0	0.912	s	TR
9.873	2.0	1-back	0.0	1.0	0.655	z	BL
11.888	2.0	1-back	0.0	1.0	0.84	t	TL
13.904	2.0	1-back	0.0	1.0	0.494	x	BR
15.92	2.0	1-back	1.0	1.0	0.796	x	TL
17.936	2.0	1-back	0.0	1.0	0.757	n	BL
19.951	2.0	1-back	0.0	1.0	0.558	s	TR
21.967	2.0	1-back	0.0	1.0	0.577	l	BR
23.983	2.0	1-back	1.0	0.0	0.37	l	TL
25.999	2.0	1-back	0.0	0.0	0.953	g	BR
28.014	2.0	1-back	1.0	0.0	0.447	g	TR
30.03	2.0	1-back	0.0	0.0	n/a	r	TL
32.046	2.0	1-back	1.0	1.0	0.809	r	TR
34.061	2.0	1-back	0.0	1.0	1.037	x	BL
36.077	2.0	1-back	0.0	1.0	0.722	p	TR
38.093	2.0	1-back	1.0	0.0	n/a	p	TL
40.109	2.0	1-back	0.0	1.0	0.781	c	TR
42.124	2.0	1-back	0.0	1.0	0.526	r	BL
44.14	2.0	1-back	0.0	0.0	n/a	f	TR
46.156	2.0	1-back	1.0	0.0	0.41	f	BR
48.172	2.0	1-back	1.0	1.0	0.383	f	BL
50.187	2.0	1-back	0.0	1.0	0.825	c	TL
52.203	2.0	1-back	0.0	0.0	n/a	z	BL
54.219	2.0	1-back	1.0	1.0	0.924	z	BR
56.234	2.0	1-back	0.0	1.0	0.831	v	BL
58.25	2.0	1-back	0.0	1.0	0.78	p	TL
60.266	2.0	1-back	1.0	1.0	0.777	p	TR
62.282	2.0	1-back	0.0	1.0	0.685	n	BR
64.297	2.0	1-back	0.0	1.0	0.654	s	BL
66.313	2.0	1-back	1.0	1.0	1.003	s	TL
68.329	2.0	1-back	0.0	1.0	0.591	z	TR
70.345	2.0	1-back	0.0	1.0	0.426	v	BL
72.36	2.0	1-back	0.0	1.0	0.449	t	BR
74.376	2.0	1-back	1.0	0.0	0.41	t	TL
76.392	2.0	1-back	1.0	0.0	0.958	t	BR
78.407	2.0	1-back	0.0	0.0	0.728	g	TL
80.423	2.0	1-back	0.0	1.0	0.6	x	BR
82.439	2.0	1-back	0.0	1.0	0.867	g	BL
84.455	2.0	1-back	0.0	1.0	0.67	c	TL
86.47	2.0	1-back	1.0	1.0	0.633	c	TR
88.486	2.0	1-back	0.0	1.0	0.946	v	BR
90.502	2.0	1-back	1.0	0.0	0.707	v	TL
92.517	2.0	1-back	0.0	1.0	1.111	f	TR
94.533	2.0	1-back	0.0	1.0	1.002	r	BR
96.549	2.0	1-back	0.0	1.0	0.578	n	BL
98.565	2.0	1-back	1.0	0.0	0.38	n	BR
104.628	2.0	baseline	n/a	1.0	n/a	blackcross.bmp	n/a
106.677	2.0	baseline	n/a	1.0	n/a	blackcross.bmp	n/a
108.726	2.0	baseline	1.0	1.0	0.77	redcross.bmp	n/a
110.775	2.0	baseline	n/a	1.0	n/a	blackcross.bmp	n/a
112.824	2.0	baseline	n/a	1.0	n/a	blackcross.bmp	n/a
114.873	2.0	baseline	1.0	1.0	0.365	redcross.bmp	n/a
116.922	2.0	baseline	n/a	1.0	n/a	blackcross.bmp	n/a
118.972	2.0	baseline	n/a	1.0	n/a	blackcross.bmp	n/a
121.021	2.0	baseline	n/a	1.0	n/a	blackcross.bmp	n/a
123.07	2.0	baseline	1.0	1.0	0.438	redcross.bmp	n/a
125.119	2.0	baseline	n/a	1.0	n/a	blackcross.bmp	n/a
127.168	2.0	baseline	1.0	1.0	0.473	redcross.bmp	n/a
133.215	1.8	no_response	n/a	0.0	0.747	z	TR
135.014	1.8	no_response	n/a	1.0	n/a	n	BL
136.813	2.0	2-back	0.0	1.0	0.858	g	BL
138.829	2.0	2-back	0.0	0.0	n/a	p	TR
140.845	2.0	2-back	1.0	0.0	0.703	g	TL
142.861	2.0	2-back	0.0	1.0	0.591	s	TL
144.876	2.0	2-back	0.0	1.0	0.584	f	BL
146.892	2.0	2-back	1.0	0.0	0.393	s	TR
148.908	2.0	2-back	1.0	0.0	0.641	f	TR
150.924	2.0	2-back	0.0	0.0	0.44	c	TL
152.939	2.0	2-back	0.0	1.0	0.311	x	BR
154.955	2.0	2-back	1.0	0.0	0.502	c	BL
156.971	2.0	2-back	0.0	1.0	0.715	l	TL
158.986	2.0	2-back	0.0	1.0	0.465	v	TL
161.002	2.0	2-back	0.0	1.0	0.441	p	TR
163.018	2.0	2-back	1.0	0.0	n/a	v	BR
165.034	2.0	2-back	0.0	1.0	0.33	c	TL
167.049	2.0	2-back	0.0	1.0	0.439	s	TL
169.065	2.0	2-back	0.0	1.0	0.679	t	BL
171.081	2.0	2-back	0.0	1.0	0.43	x	BR
173.097	2.0	2-back	1.0	0.0	0.742	t	TL
175.112	2.0	2-back	0.0	1.0	0.538	r	BL
177.128	2.0	2-back	0.0	1.0	0.445	n	BR
179.144	2.0	2-back	1.0	0.0	0.49	r	BR
181.159	2.0	2-back	0.0	1.0	0.392	l	TR
183.175	2.0	2-back	0.0	1.0	0.466	v	BL
185.191	2.0	2-back	1.0	0.0	0.369	l	BR
187.207	2.0	2-back	1.0	0.0	0.331	v	TR
189.222	2.0	2-back	0.0	0.0	0.764	s	BL
191.238	2.0	2-back	0.0	1.0	0.538	t	BR
193.254	2.0	2-back	0.0	1.0	0.4	c	BR
195.27	2.0	2-back	1.0	0.0	0.836	t	TR
197.285	2.0	2-back	0.0	1.0	0.421	n	TL
199.301	2.0	2-back	0.0	1.0	0.464	l	BR
201.317	2.0	2-back	1.0	0.0	0.32	n	TR
203.332	2.0	2-back	0.0	1.0	0.447	p	TL
205.348	2.0	2-back	0.0	1.0	0.517	x	BL
207.364	2.0	2-back	1.0	0.0	0.336	p	TR
209.38	2.0	2-back	0.0	1.0	0.304	f	BR
211.395	2.0	2-back	0.0	1.0	0.491	z	TL
213.411	2.0	2-back	1.0	0.0	0.456	f	TR
215.427	2.0	2-back	0.0	1.0	0.417	r	BL
217.442	2.0	2-back	0.0	1.0	0.234	x	BR
219.458	2.0	2-back	1.0	0.0	0.284	r	TR
221.474	2.0	2-back	0.0	1.0	0.262	g	BL
223.49	2.0	2-back	0.0	1.0	0.223	z	BL
225.505	2.0	2-back	1.0	0.0	0.022	g	TL
227.521	2.0	2-back	1.0	0.0	0.325	z	BR
233.585	2.0	baseline	n/a	1.0	n/a	blackcross.bmp	n/a
235.634	2.0	baseline	1.0	1.0	0.475	redcross.bmp	n/a
237.683	2.0	baseline	n/a	1.0	n/a	blackcross.bmp	n/a
239.732	2.0	baseline	n/a	1.0	n/a	blackcross.bmp	n/a
241.781	2.0	baseline	n/a	1.0	n/a	blackcross.bmp	n/a
243.83	2.0	baseline	n/a	1.0	n/a	blackcross.bmp	n/a
245.879	2.0	baseline	1.0	1.0	0.425	redcross.bmp	n/a
247.928	2.0	baseline	n/a	1.0	n/a	blackcross.bmp	n/a
249.977	2.0	baseline	n/a	1.0	n/a	blackcross.bmp	n/a
252.026	2.0	baseline	n/a	1.0	n/a	blackcross.bmp	n/a
254.075	2.0	baseline	1.0	1.0	0.377	redcross.bmp	n/a
256.124	2.0	baseline	1.0	1.0	0.586	redcross.bmp	n/a
