onset	duration	trial_type	correct_response	accuracy	response_time	stimulus	position
4.183	1.8	no_response	n/a	1.0	n/a	c	BL
5.989	1.8	no_response	n/a	0.0	1.137	l	TR
7.795	2.0	2-back	1.0	0.0	n/a	v	BL
9.801	2.0	2-back	1.0	0.0	n/a	p	TR
11.807	2.0	2-back	0.0	0.0	n/a	r	TL
13.813	2.0	2-back	0.0	1.0	1.108	t	BR
15.82	2.0	2-back	1.0	0.0	1.074	n	TL
17.826	2.0	2-back	0.0	1.0	1.025	s	TR
19.832	2.0	2-back	0.0	1.0	1.189	f	BL
21.838	2.0	2-back	1.0	1.0	1.095	x	TR
23.845	2.0	2-back	0.0	1.0	0.942	v	BR
25.851	2.0	2-back	0.0	1.0	0.995	p	TL
27.857	2.0	2-back	1.0	1.0	0.94	f	BR
29.863	2.0	2-back	1.0	1.0	0.869	n	TL
31.87	2.0	2-back	0.0	1.0	0.969	x	TR
33.876	2.0	2-back	1.0	1.0	1.053	t	TL
35.882	2.0	2-back	0.0	1.0	0.946	s	BL
37.888	2.0	2-back	0.0	1.0	0.986	l	TR
39.895	2.0	2-back	1.0	1.0	1.155	f	BL
41.901	2.0	2-back	1.0	0.0	0.804	c	TR
43.907	2.0	2-back	0.0	1.0	0.931	r	TL
45.913	2.0	2-back	1.0	1.0	0.732	g	TR
47.92	2.0	2-back	0.0	1.0	0.907	s	BL
49.926	2.0	2-back	0.0	1.0	0.948	r	BR
51.932	2.0	2-back	1.0	1.0	0.712	v	BL
53.938	2.0	2-back	0.0	1.0	0.944	p	BL
55.945	2.0	2-back	0.0	1.0	0.926	t	TL
57.951	2.0	2-back	1.0	1.0	0.646	x	BL
59.957	2.0	2-back	0.0	1.0	0.819	z	BR
61.963	2.0	2-back	0.0	1.0	1.021	t	TR
63.97	2.0	2-back	0.0	0.0	0.932	g	TL
65.976	2.0	2-back	1.0	0.0	0.831	c	TR
67.982	2.0	2-back	0.0	1.0	0.918	p	BL
69.988	2.0	2-back	0.0	0.0	0.968	s	BR
71.995	2.0	2-back	0.0	1.0	0.876	v	TL
74.001	2.0	2-back	1.0	0.0	0.895	n	BR
76.007	2.0	2-back	0.0	1.0	1.018	c	BL
78.013	2.0	2-back	0.0	1.0	0.963	l	TL
80.02	2.0	2-back	0.0	1.0	0.859	x	BR
82.026	2.0	2-back	1.0	1.0	0.913	z	TL
84.032	2.0	2-back	0.0	1.0	0.928	g	TR
86.038	2.0	2-back	0.0	1.0	0.938	f	BR
88.045	2.0	2-back	0.0	1.0	0.918	z	TL
90.051	2.0	2-back	1.0	0.0	0.956	l	BR
92.057	2.0	2-back	0.0	1.0	0.945	r	TR
94.064	2.0	2-back	1.0	0.0	0.941	z	BR
96.07	2.0	2-back	0.0	1.0	0.914	n	BL
98.076	2.0	2-back	1.0	0.0	0.98	g	BR
104.13	2.0	baseline	n/a	1.0	n/a	blackcross.bmp	n/a
106.187	2.0	baseline	n/a	1.0	n/a	blackcross.bmp	n/a
108.243	2.0	baseline	n/a	1.0	n/a	blackcross.bmp	n/a
110.333	2.0	baseline	1.0	1.0	0.423	redcross.bmp	n/a
112.389	2.0	baseline	n/a	1.0	n/a	blackcross.bmp	n/a
114.446	2.0	baseline	1.0	1.0	0.932	redcross.bmp	n/a
116.502	2.0	baseline	n/a	1.0	n/a	blackcross.bmp	n/a
118.558	2.0	baseline	n/a	1.0	n/a	blackcross.bmp	n/a
120.615	2.0	baseline	1.0	1.0	0.416	redcross.bmp	n/a
122.671	2.0	baseline	n/a	1.0	n/a	blackcross.bmp	n/a
124.728	2.0	baseline	n/a	1.0	n/a	blackcross.bmp	n/a
126.784	2.0	baseline	1.0	1.0	0.435	redcross.bmp	n/a
132.834	1.8	no_response	n/a	1.0	n/a	p	TR
134.64	2.0	1-back	0.0	0.0	0.892	f	BL
136.646	2.0	1-back	1.0	0.0	0.804	n	BL
138.653	2.0	1-back	0.0	1.0	0.687	x	TR
140.659	2.0	1-back	0.0	1.0	0.775	c	TL
142.665	2.0	1-back	1.0	1.0	0.66	p	TL
144.671	2.0	1-back	0.0	1.0	0.364	n	BL
146.678	2.0	1-back	0.0	0.0	0.737	c	TR
148.684	2.0	1-back	1.0	0.0	0.466	g	TR
150.69	2.0	1-back	0.0	0.0	0.694	n	TL
152.696	2.0	1-back	0.0	1.0	0.731	s	BR
154.703	2.0	1-back	0.0	1.0	0.744	x	BL
156.709	2.0	1-back	0.0	0.0	0.504	t	TL
158.715	2.0	1-back	1.0	0.0	0.492	g	TL
160.721	2.0	1-back	0.0	1.0	1.054	p	BR
162.728	2.0	1-back	0.0	1.0	0.671	c	TL
164.734	2.0	1-back	1.0	0.0	0.802	r	TL
166.74	2.0	1-back	0.0	1.0	0.577	t	BL
168.746	2.0	1-back	1.0	0.0	0.78	v	BL
170.753	2.0	1-back	0.0	1.0	1.073	g	BR
172.759	2.0	1-back	0.0	0.0	0.754	p	TL
174.765	2.0	1-back	0.0	1.0	0.35	x	BR
176.771	2.0	1-back	1.0	0.0	0.476	z	BR
178.778	2.0	1-back	0.0	1.0	0.452	l	TR
180.784	2.0	1-back	1.0	0.0	0.654	v	TR
182.79	2.0	1-back	0.0	1.0	0.706	n	BR
184.796	2.0	1-back	0.0	1.0	0.466	r	BL
186.803	2.0	1-back	1.0	0.0	0.331	s	BL
188.809	2.0	1-back	0.0	1.0	0.729	z	TR
190.815	2.0	1-back	0.0	1.0	0.747	l	TL
192.821	2.0	1-back	0.0	1.0	0.857	g	BR
194.828	2.0	1-back	1.0	1.0	0.724	f	BR
196.834	2.0	1-back	0.0	1.0	0.565	t	TR
198.84	2.0	1-back	0.0	1.0	0.642	z	TL
200.846	2.0	1-back	1.0	1.0	0.773	l	TL
202.853	2.0	1-back	0.0	1.0	0.547	f	BL
204.859	2.0	1-back	0.0	1.0	0.688	t	TR
206.865	2.0	1-back	1.0	0.0	0.618	r	TR
208.871	2.0	1-back	0.0	1.0	0.692	l	BR
210.878	2.0	1-back	1.0	1.0	1.029	z	BR
212.884	2.0	1-back	0.0	1.0	0.499	r	TR
214.89	2.0	1-back	1.0	0.0	0.744	v	TR
216.896	2.0	1-back	0.0	1.0	0.966	s	BL
218.903	2.0	1-back	1.0	1.0	0.66	f	BL
220.909	2.0	1-back	0.0	1.0	0.511	v	TL
222.915	2.0	1-back	0.0	1.0	0.67	x	BR
224.921	2.0	1-back	1.0	1.0	0.674	c	BR
226.928	2.0	1-back	0.0	1.0	0.793	s	BL
232.965	2.0	baseline	n/a	1.0	n/a	blackcross.bmp	n/a
235.021	2.0	baseline	n/a	1.0	n/a	blackcross.bmp	n/a
237.078	2.0	baseline	1.0	1.0	0.539	redcross.bmp	n/a
239.134	2.0	baseline	1.0	1.0	0.581	redcross.bmp	n/a
241.191	2.0	baseline	n/a	1.0	n/a	blackcross.bmp	n/a
243.247	2.0	baseline	n/a	1.0	n/a	blackcross.bmp	n/a
245.304	2.0	baseline	1.0	1.0	0.46	redcross.bmp	n/a
247.36	2.0	baseline	n/a	1.0	n/a	blackcross.bmp	n/a
249.416	2.0	baseline	n/a	1.0	n/a	blackcross.bmp	n/a
251.473	2.0	baseline	n/a	1.0	n/a	blackcross.bmp	n/a
253.529	2.0	baseline	1.0	1.0	0.473	redcross.bmp	n/a
255.586	2.0	baseline	n/a	1.0	n/a	blackcross.bmp	n/a
