onset	duration	trial_type	correct_response	accuracy	response_time	stimulus	position
4.034	1.8	no_response	n/a	1.0	n/a	l	TR
5.839	2.0	1-back	1.0	1.0	0.707	l	BL
7.862	2.0	1-back	0.0	1.0	0.68	s	TR
9.885	2.0	1-back	0.0	1.0	0.576	z	BL
11.908	2.0	1-back	0.0	1.0	0.777	t	TL
13.931	2.0	1-back	0.0	1.0	0.544	x	BR
15.954	2.0	1-back	1.0	1.0	0.628	x	TL
17.977	2.0	1-back	0.0	1.0	0.527	n	BL
20.0	2.0	1-back	0.0	0.0	0.642	s	TR
22.023	2.0	1-back	0.0	1.0	0.907	l	BR
24.046	2.0	1-back	1.0	1.0	0.783	l	TL
26.069	2.0	1-back	0.0	1.0	0.588	g	BR
28.092	2.0	1-back	1.0	1.0	1.04	g	TR
30.115	2.0	1-back	0.0	1.0	0.769	r	TL
32.138	2.0	1-back	1.0	1.0	0.858	r	TR
34.161	2.0	1-back	0.0	1.0	0.942	x	BL
36.184	2.0	1-back	0.0	1.0	0.968	p	TR
38.207	2.0	1-back	1.0	1.0	0.877	p	TL
40.23	2.0	1-back	0.0	1.0	1.001	c	TR
42.253	2.0	1-back	0.0	0.0	n/a	r	BL
44.276	2.0	1-back	0.0	1.0	0.853	f	TR
46.299	2.0	1-back	1.0	0.0	0.885	f	BR
48.322	2.0	1-back	1.0	1.0	1.091	f	BL
50.345	2.0	1-back	0.0	1.0	0.713	c	TL
52.368	2.0	1-back	0.0	1.0	0.919	z	BL
54.391	2.0	1-back	1.0	1.0	0.713	z	BR
56.414	2.0	1-back	0.0	1.0	0.764	v	BL
58.436	2.0	1-back	0.0	1.0	0.952	p	TL
60.459	2.0	1-back	1.0	1.0	0.772	p	TR
62.482	2.0	1-back	0.0	1.0	0.829	n	BR
64.505	2.0	1-back	0.0	1.0	0.97	s	BL
66.528	2.0	1-back	1.0	1.0	0.869	s	TL
68.551	2.0	1-back	0.0	1.0	0.808	z	TR
70.574	2.0	1-back	0.0	1.0	1.094	v	BL
72.597	2.0	1-back	0.0	1.0	0.993	t	BR
74.62	2.0	1-back	1.0	0.0	0.983	t	TL
76.643	2.0	1-back	1.0	1.0	1.02	t	BR
78.666	2.0	1-back	0.0	1.0	0.881	g	TL
80.689	2.0	1-back	0.0	1.0	0.91	x	BR
82.712	2.0	1-back	0.0	0.0	1.143	g	BL
84.735	2.0	1-back	0.0	0.0	n/a	c	TL
86.758	2.0	1-back	1.0	1.0	1.002	c	TR
88.781	2.0	1-back	0.0	1.0	0.784	v	BR
90.804	2.0	1-back	1.0	0.0	1.15	v	TL
92.827	2.0	1-back	0.0	1.0	1.02	f	TR
94.85	2.0	1-back	0.0	1.0	0.979	r	BR
96.873	2.0	1-back	0.0	1.0	1.042	n	BL
98.896	2.0	1-back	1.0	0.0	0.972	n	BR
104.95	2.0	baseline	n/a	1.0	n/a	blackcross.bmp	n/a
107.006	2.0	baseline	n/a	1.0	n/a	blackcross.bmp	n/a
109.063	2.0	baseline	1.0	1.0	0.605	redcross.bmp	n/a
111.119	2.0	baseline	n/a	1.0	n/a	blackcross.bmp	n/a
113.176	2.0	baseline	n/a	1.0	n/a	blackcross.bmp	n/a
115.232	2.0	baseline	1.0	1.0	0.571	redcross.bmp	n/a
117.288	2.0	baseline	n/a	1.0	n/a	blackcross.bmp	n/a
119.345	2.0	baseline	n/a	1.0	n/a	blackcross.bmp	n/a
121.401	2.0	baseline	n/a	1.0	n/a	blackcross.bmp	n/a
123.458	2.0	baseline	1.0	1.0	0.689	redcross.bmp	n/a
125.514	2.0	baseline	n/a	1.0	n/a	blackcross.bmp	n/a
127.57	2.0	baseline	1.0	1.0	0.781	redcross.bmp	n/a
133.621	1.8	no_response	n/a	0.0	1.036	z	TR
135.426	1.8	no_response	n/a	1.0	n/a	n	BL
137.232	2.0	2-back	0.0	1.0	0.582	g	BL
139.255	2.0	2-back	0.0	1.0	0.725	p	TR
141.278	2.0	2-back	1.0	1.0	1.073	g	TL
143.301	2.0	2-back	0.0	1.0	0.62	s	TL
145.324	2.0	2-back	0.0	1.0	0.781	f	BL
147.347	2.0	2-back	1.0	1.0	0.769	s	TR
149.37	2.0	2-back	1.0	1.0	0.975	f	TR
151.393	2.0	2-back	0.0	1.0	0.819	c	TL
153.416	2.0	2-back	0.0	1.0	0.764	x	BR
155.439	2.0	2-back	1.0	0.0	0.955	c	BL
157.462	2.0	2-back	0.0	1.0	0.893	l	TL
159.485	2.0	2-back	0.0	1.0	0.882	v	TL
161.508	2.0	2-back	0.0	1.0	0.916	p	TR
163.531	2.0	2-back	1.0	1.0	0.935	v	BR
165.554	2.0	2-back	0.0	1.0	0.476	c	TL
167.577	2.0	2-back	0.0	1.0	0.681	s	TL
169.6	2.0	2-back	0.0	1.0	0.753	t	BL
171.623	2.0	2-back	0.0	1.0	0.521	x	BR
173.646	2.0	2-back	1.0	1.0	0.913	t	TL
175.669	2.0	2-back	0.0	1.0	0.841	r	BL
177.692	2.0	2-back	0.0	1.0	0.882	n	BR
179.715	2.0	2-back	1.0	1.0	1.003	r	BR
181.737	2.0	2-back	0.0	1.0	0.768	l	TR
183.76	2.0	2-back	0.0	1.0	0.767	v	BL
185.783	2.0	2-back	1.0	1.0	0.819	l	BR
187.806	2.0	2-back	1.0	0.0	0.691	v	TR
189.829	2.0	2-back	0.0	1.0	0.743	s	BL
191.852	2.0	2-back	0.0	1.0	0.695	t	BR
193.875	2.0	2-back	0.0	1.0	0.618	c	BR
195.898	2.0	2-back	1.0	1.0	0.803	t	TR
197.921	2.0	2-back	0.0	1.0	0.675	n	TL
199.944	2.0	2-back	0.0	1.0	0.74	l	BR
201.967	2.0	2-back	1.0	0.0	0.746	n	TR
203.99	2.0	2-back	0.0	1.0	0.898	p	TL
206.013	2.0	2-back	0.0	1.0	0.599	x	BL
208.036	2.0	2-back	1.0	1.0	0.556	p	TR
210.059	2.0	2-back	0.0	1.0	0.578	f	BR
212.082	2.0	2-back	0.0	1.0	0.642	z	TL
214.105	2.0	2-back	1.0	1.0	0.672	f	TR
216.128	2.0	2-back	0.0	1.0	0.663	r	BL
218.151	2.0	2-back	0.0	1.0	0.863	x	BR
220.174	2.0	2-back	1.0	1.0	1.003	r	TR
222.197	2.0	2-back	0.0	1.0	0.983	g	BL
224.22	2.0	2-back	0.0	1.0	1.017	z	BL
226.243	2.0	2-back	1.0	0.0	0.889	g	TL
228.266	2.0	2-back	1.0	0.0	1.05	z	BR
234.32	2.0	baseline	n/a	1.0	n/a	blackcross.bmp	n/a
236.376	2.0	baseline	1.0	1.0	0.596	redcross.bmp	n/a
238.433	2.0	baseline	n/a	1.0	n/a	blackcross.bmp	n/a
240.489	2.0	baseline	n/a	1.0	n/a	blackcross.bmp	n/a
242.546	2.0	baseline	n/a	1.0	n/a	blackcross.bmp	n/a
244.602	2.0	baseline	n/a	1.0	n/a	blackcross.bmp	n/a
246.658	2.0	baseline	1.0	1.0	0.596	redcross.bmp	n/a
248.715	2.0	baseline	n/a	1.0	n/a	blackcross.bmp	n/a
250.771	2.0	baseline	n/a	1.0	n/a	blackcross.bmp	n/a
252.828	2.0	baseline	n/a	1.0	n/a	blackcross.bmp	n/a
254.884	2.0	baseline	1.0	1.0	0.725	redcross.bmp	n/a
256.94	2.0	baseline	1.0	1.0	0.957	redcross.bmp	n/a
