onset	duration	trial_type	correct_response	accuracy	response_time	stimulus	position
4.026	1.8	no_response	n/a	1.0	n/a	v	TR
5.825	1.8	no_response	n/a	0.0	1.033	r	BR
7.624	2.0	2-back	1.0	1.0	1.041	v	TL
9.624	2.0	2-back	0.0	0.0	n/a	g	TR
11.623	2.0	2-back	0.0	0.0	n/a	p	BL
13.622	2.0	2-back	1.0	0.0	n/a	g	BR
15.621	2.0	2-back	0.0	1.0	1.029	n	TL
17.62	2.0	2-back	0.0	1.0	1.012	x	TR
19.619	2.0	2-back	0.0	0.0	1.028	l	BR
21.618	2.0	2-back	0.0	1.0	1.047	c	TL
23.617	2.0	2-back	1.0	1.0	0.824	l	BL
25.616	2.0	2-back	1.0	0.0	n/a	c	TR
27.615	2.0	2-back	0.0	0.0	n/a	t	BR
29.614	2.0	2-back	0.0	0.0	n/a	n	TL
31.613	2.0	2-back	1.0	0.0	n/a	t	BR
33.612	2.0	2-back	0.0	0.0	n/a	f	TR
35.611	2.0	2-back	0.0	0.0	0.955	n	BR
37.611	2.0	2-back	0.0	0.0	n/a	x	TL
39.61	2.0	2-back	1.0	1.0	1.005	n	BL
41.609	2.0	2-back	0.0	1.0	0.713	r	TR
43.608	2.0	2-back	0.0	0.0	0.941	f	TL
45.607	2.0	2-back	1.0	0.0	0.667	r	BR
47.606	2.0	2-back	0.0	1.0	0.591	s	TR
49.605	2.0	2-back	0.0	0.0	0.565	v	BL
51.604	2.0	2-back	0.0	0.0	n/a	p	TL
53.603	2.0	2-back	1.0	1.0	0.834	v	TR
55.602	2.0	2-back	0.0	0.0	n/a	s	BL
57.601	2.0	2-back	0.0	0.0	1.017	p	BR
59.6	2.0	2-back	1.0	1.0	1.109	s	TR
61.599	2.0	2-back	0.0	1.0	0.781	g	BL
63.598	2.0	2-back	0.0	1.0	1.012	z	TL
65.597	2.0	2-back	0.0	0.0	n/a	r	BR
67.596	2.0	2-back	1.0	1.0	0.937	z	BL
69.596	2.0	2-back	0.0	1.0	1.141	c	BL
71.595	2.0	2-back	0.0	0.0	n/a	t	BR
73.594	2.0	2-back	1.0	0.0	n/a	c	TL
75.593	2.0	2-back	1.0	1.0	1.088	t	BL
77.592	2.0	2-back	0.0	0.0	n/a	s	BR
79.591	2.0	2-back	0.0	0.0	n/a	x	BL
81.59	2.0	2-back	0.0	0.0	n/a	f	TR
83.589	2.0	2-back	1.0	1.0	1.131	x	TR
85.588	2.0	2-back	1.0	0.0	n/a	f	BR
87.587	2.0	2-back	0.0	0.0	n/a	l	TL
89.586	2.0	2-back	0.0	1.0	1.097	p	BL
91.585	2.0	2-back	1.0	1.0	1.068	l	BL
93.584	2.0	2-back	0.0	1.0	0.958	z	TL
95.583	2.0	2-back	0.0	1.0	0.983	g	TL
97.583	2.0	2-back	1.0	0.0	n/a	z	TR
103.629	2.0	baseline	n/a	1.0	n/a	blackcross.bmp	n/a
105.678	2.0	baseline	1.0	0.0	1.036	redcross.bmp	n/a
107.727	2.0	baseline	n/a	1.0	n/a	blackcross.bmp	n/a
109.777	2.0	baseline	n/a	1.0	n/a	blackcross.bmp	n/a
111.826	2.0	baseline	n/a	1.0	n/a	blackcross.bmp	n/a
113.875	2.0	baseline	1.0	0.0	0.505	redcross.bmp	n/a
115.924	2.0	baseline	n/a	1.0	n/a	blackcross.bmp	n/a
117.973	2.0	baseline	n/a	1.0	n/a	blackcross.bmp	n/a
120.022	2.0	baseline	n/a	1.0	n/a	blackcross.bmp	n/a
122.071	2.0	baseline	n/a	1.0	n/a	blackcross.bmp	n/a
124.12	2.0	baseline	1.0	0.0	0.744	redcross.bmp	n/a
126.169	2.0	baseline	1.0	0.0	n/a	redcross.bmp	n/a
132.216	1.8	no_response	n/a	1.0	n/a	r	TL
134.016	2.0	1-back	1.0	1.0	0.879	r	TR
136.015	2.0	1-back	0.0	1.0	0.708	g	BR
138.014	2.0	1-back	1.0	1.0	0.793	g	TL
140.013	2.0	1-back	0.0	1.0	0.69	f	TR
142.012	2.0	1-back	0.0	1.0	0.886	t	BL
144.011	2.0	1-back	0.0	1.0	0.733	v	TL
146.01	2.0	1-back	0.0	1.0	0.728	p	TR
148.009	2.0	1-back	1.0	1.0	0.73	p	BL
150.008	2.0	1-back	0.0	1.0	0.762	z	BR
152.007	2.0	1-back	0.0	1.0	0.723	s	TR
154.006	2.0	1-back	1.0	1.0	0.708	s	BL
156.005	2.0	1-back	0.0	1.0	0.542	c	TL
158.004	2.0	1-back	1.0	1.0	0.851	c	BR
160.003	2.0	1-back	0.0	1.0	0.959	l	BR
162.002	2.0	1-back	0.0	1.0	0.869	n	BL
164.002	2.0	1-back	0.0	1.0	0.622	v	TL
166.001	2.0	1-back	1.0	1.0	0.763	v	TR
168.0	2.0	1-back	0.0	1.0	0.559	z	BR
169.999	2.0	1-back	0.0	1.0	0.769	s	TL
171.998	2.0	1-back	0.0	1.0	0.691	x	TR
173.997	2.0	1-back	1.0	1.0	0.567	x	BL
175.996	2.0	1-back	1.0	1.0	0.608	x	BR
177.995	2.0	1-back	0.0	1.0	0.529	v	TR
179.994	2.0	1-back	0.0	0.0	n/a	z	TL
181.993	2.0	1-back	1.0	0.0	n/a	z	BR
183.992	2.0	1-back	0.0	1.0	1.007	f	BL
185.991	2.0	1-back	0.0	1.0	0.857	r	TR
187.99	2.0	1-back	1.0	1.0	0.68	r	BL
189.989	2.0	1-back	0.0	1.0	0.582	n	TL
191.988	2.0	1-back	0.0	1.0	0.899	l	BL
193.987	2.0	1-back	1.0	1.0	0.717	l	BR
195.987	2.0	1-back	0.0	1.0	0.593	s	TL
197.986	2.0	1-back	0.0	1.0	1.068	g	TR
199.985	2.0	1-back	0.0	1.0	0.777	c	BL
201.984	2.0	1-back	1.0	1.0	0.557	c	TR
203.983	2.0	1-back	0.0	1.0	1.002	f	BR
205.982	2.0	1-back	1.0	1.0	0.738	f	TL
207.981	2.0	1-back	0.0	1.0	0.775	t	TR
209.98	2.0	1-back	0.0	1.0	1.113	x	BL
211.979	2.0	1-back	0.0	1.0	1.064	p	TL
213.978	2.0	1-back	1.0	1.0	0.771	p	BL
215.977	2.0	1-back	0.0	1.0	0.803	n	BR
217.976	2.0	1-back	1.0	1.0	0.879	n	TL
219.975	2.0	1-back	0.0	1.0	0.793	g	BR
221.974	2.0	1-back	0.0	1.0	0.891	l	BL
223.974	2.0	1-back	0.0	1.0	0.863	t	TR
225.973	2.0	1-back	1.0	1.0	0.837	t	BR
232.019	2.0	baseline	1.0	0.0	0.393	redcross.bmp	n/a
234.069	2.0	baseline	n/a	0.0	0.117	blackcross.bmp	n/a
236.118	2.0	baseline	1.0	1.0	0.304	redcross.bmp	n/a
238.167	2.0	baseline	n/a	1.0	n/a	blackcross.bmp	n/a
240.216	2.0	baseline	n/a	1.0	n/a	blackcross.bmp	n/a
242.265	2.0	baseline	n/a	1.0	n/a	blackcross.bmp	n/a
244.314	2.0	baseline	1.0	0.0	n/a	redcross.bmp	n/a
246.363	2.0	baseline	n/a	1.0	n/a	blackcross.bmp	n/a
248.412	2.0	baseline	n/a	1.0	n/a	blackcross.bmp	n/a
250.461	2.0	baseline	n/a	1.0	n/a	blackcross.bmp	n/a
252.51	2.0	baseline	1.0	1.0	0.617	redcross.bmp	n/a
254.559	2.0	baseline	n/a	1.0	n/a	blackcross.bmp	n/a
