onset	duration	trial_type	correct_response	accuracy	response_time	stimulus	position
2.027	1.8	no_response	n/a	1.0	n/a	v	TR
3.826	2.0	1-back	0.0	1.0	0.452	p	TL
5.842	2.0	1-back	0.0	1.0	0.615	z	BL
7.857	2.0	1-back	1.0	1.0	0.47	c	BL
9.873	2.0	1-back	0.0	1.0	0.597	t	TR
11.889	2.0	1-back	0.0	1.0	0.51	l	TL
13.905	2.0	1-back	1.0	1.0	0.456	c	TL
15.92	2.0	1-back	0.0	1.0	0.336	v	BL
17.936	2.0	1-back	0.0	1.0	0.441	n	BR
19.952	2.0	1-back	1.0	1.0	0.423	l	BR
21.968	2.0	1-back	0.0	1.0	0.304	v	TL
23.983	2.0	1-back	0.0	1.0	0.381	c	BR
25.999	2.0	1-back	0.0	1.0	0.468	r	TR
28.015	2.0	1-back	1.0	1.0	0.38	t	TR
30.03	2.0	1-back	0.0	1.0	0.505	n	BL
32.046	2.0	1-back	1.0	1.0	0.432	s	BL
34.062	2.0	1-back	0.0	1.0	0.402	v	TR
36.078	2.0	1-back	0.0	1.0	0.409	p	TL
38.093	2.0	1-back	1.0	1.0	0.483	c	TL
40.109	2.0	1-back	0.0	1.0	0.375	g	TR
42.125	2.0	1-back	1.0	1.0	0.46	z	TR
44.141	2.0	1-back	0.0	1.0	0.367	x	BR
46.156	2.0	1-back	0.0	1.0	0.471	g	BL
48.172	2.0	1-back	0.0	1.0	0.447	l	TL
50.188	2.0	1-back	0.0	1.0	0.378	r	BL
52.204	2.0	1-back	1.0	1.0	0.4	x	BL
54.219	2.0	1-back	0.0	1.0	0.322	f	BR
56.235	2.0	1-back	0.0	1.0	0.732	z	TR
58.251	2.0	1-back	1.0	1.0	0.55	r	TR
60.266	2.0	1-back	0.0	1.0	0.557	f	BL
62.282	2.0	1-back	1.0	1.0	0.632	n	BL
64.298	2.0	1-back	0.0	1.0	0.518	x	TR
66.314	2.0	1-back	1.0	1.0	0.396	t	TR
68.329	2.0	1-back	0.0	1.0	0.472	p	BR
70.345	2.0	1-back	1.0	1.0	0.416	x	BR
72.361	2.0	1-back	0.0	1.0	0.45	t	TL
74.377	2.0	1-back	1.0	1.0	0.535	s	TL
76.392	2.0	1-back	0.0	1.0	0.366	f	BL
78.408	2.0	1-back	0.0	1.0	0.385	l	BR
80.424	2.0	1-back	1.0	1.0	0.292	g	BR
82.44	2.0	1-back	0.0	1.0	0.358	n	TL
84.455	2.0	1-back	0.0	1.0	0.361	s	TR
86.471	2.0	1-back	0.0	1.0	0.378	p	BR
88.487	2.0	1-back	0.0	1.0	0.37	r	TL
90.502	2.0	1-back	1.0	1.0	0.464	s	TL
92.518	2.0	1-back	0.0	1.0	0.388	g	BR
94.534	2.0	1-back	1.0	1.0	0.392	z	BR
96.55	2.0	1-back	0.0	1.0	0.405	f	BL
102.613	2.0	baseline	n/a	1.0	n/a	blackcross.bmp	n/a
104.662	2.0	baseline	1.0	1.0	0.406	redcross.bmp	n/a
106.711	2.0	baseline	n/a	1.0	n/a	blackcross.bmp	n/a
108.76	2.0	baseline	1.0	1.0	0.37	n/a	n/a
110.809	2.0	baseline	n/a	1.0	n/a	blackcross.bmp	n/a
112.859	2.0	baseline	n/a	1.0	n/a	blackcross.bmp	n/a
114.908	2.0	baseline	1.0	1.0	0.347	n/a	n/a
116.957	2.0	baseline	n/a	1.0	n/a	blackcross.bmp	n/a
119.006	2.0	baseline	n/a	1.0	n/a	blackcross.bmp	n/a
121.055	2.0	baseline	n/a	1.0	n/a	blackcross.bmp	n/a
123.104	2.0	baseline	1.0	1.0	0.473	n/a	n/a
125.153	2.0	baseline	n/a	1.0	n/a	blackcross.bmp	n/a
131.2	1.8	no_response	n/a	1.0	n/a	c	BL
132.999	1.8	no_response	n/a	1.0	n/a	p	BR
134.799	2.0	2-back	1.0	0.0	n/a	n	BL
136.814	2.0	2-back	0.0	0.0	n/a	x	TR
138.83	2.0	2-back	0.0	1.0	0.981	g	TL
140.846	2.0	2-back	1.0	1.0	0.852	p	TR
142.861	2.0	2-back	1.0	1.0	0.703	c	TL
144.877	2.0	2-back	0.0	1.0	0.369	x	BL
146.893	2.0	2-back	1.0	1.0	0.628	l	TL
148.909	2.0	2-back	0.0	1.0	0.543	v	TR
150.924	2.0	2-back	0.0	1.0	0.715	g	TR
152.94	2.0	2-back	0.0	1.0	0.695	t	BR
154.956	2.0	2-back	0.0	1.0	0.854	z	BL
156.972	2.0	2-back	1.0	1.0	0.504	n	BR
158.987	2.0	2-back	0.0	1.0	0.603	f	TL
161.003	2.0	2-back	0.0	1.0	1.055	n	TR
163.019	2.0	2-back	1.0	1.0	0.72	t	TL
165.035	2.0	2-back	0.0	1.0	0.776	v	BL
167.05	2.0	2-back	1.0	1.0	0.617	l	TL
169.066	2.0	2-back	0.0	1.0	0.747	r	TL
171.082	2.0	2-back	0.0	1.0	0.837	s	BR
173.097	2.0	2-back	0.0	0.0	0.728	v	BL
175.113	2.0	2-back	1.0	0.0	0.619	n	BR
177.129	2.0	2-back	0.0	1.0	0.644	p	TL
179.145	2.0	2-back	0.0	1.0	0.498	s	TR
181.16	2.0	2-back	0.0	1.0	0.644	g	BR
183.176	2.0	2-back	0.0	1.0	0.49	p	BL
185.192	2.0	2-back	1.0	1.0	0.434	f	BR
187.208	2.0	2-back	0.0	1.0	0.573	r	TR
189.223	2.0	2-back	0.0	1.0	0.513	s	BL
191.239	2.0	2-back	1.0	1.0	0.74	z	TR
193.255	2.0	2-back	1.0	0.0	0.481	x	BL
195.271	2.0	2-back	0.0	1.0	0.531	c	TL
197.286	2.0	2-back	0.0	0.0	0.634	r	TR
199.302	2.0	2-back	0.0	1.0	0.419	v	BR
201.318	2.0	2-back	0.0	1.0	0.561	l	TL
203.333	2.0	2-back	1.0	0.0	0.515	c	BR
205.349	2.0	2-back	0.0	1.0	0.912	s	TR
207.365	2.0	2-back	1.0	1.0	0.586	t	BR
209.381	2.0	2-back	0.0	1.0	0.428	r	BL
211.396	2.0	2-back	0.0	1.0	0.418	f	TL
213.412	2.0	2-back	1.0	1.0	0.686	z	BL
215.428	2.0	2-back	0.0	1.0	0.491	l	TR
217.444	2.0	2-back	0.0	1.0	0.46	x	TL
219.459	2.0	2-back	1.0	0.0	0.466	f	TR
221.475	2.0	2-back	0.0	1.0	0.342	g	BR
223.491	2.0	2-back	0.0	0.0	0.367	t	BL
225.506	2.0	2-back	1.0	0.0	0.337	z	BR
231.57	2.0	baseline	n/a	1.0	n/a	blackcross.bmp	n/a
233.619	2.0	baseline	1.0	1.0	0.495	redcross.bmp	n/a
235.668	2.0	baseline	n/a	1.0	n/a	blackcross.bmp	n/a
237.717	2.0	baseline	1.0	1.0	0.256	redcross.bmp	n/a
239.766	2.0	baseline	n/a	1.0	n/a	blackcross.bmp	n/a
241.815	2.0	baseline	n/a	1.0	n/a	blackcross.bmp	n/a
243.864	2.0	baseline	n/a	1.0	n/a	blackcross.bmp	n/a
245.913	2.0	baseline	n/a	1.0	n/a	blackcross.bmp	n/a
247.962	2.0	baseline	1.0	1.0	0.552	redcross.bmp	n/a
250.012	2.0	baseline	n/a	1.0	n/a	blackcross.bmp	n/a
252.061	2.0	baseline	n/a	1.0	n/a	blackcross.bmp	n/a
254.11	2.0	baseline	1.0	1.0	0.747	redcross.bmp	n/a
