onset	duration	trial_type	correct_response	accuracy	response_time	stimulus	position
4.033	1.8	no_response	n/a	1.0	n/a	z	TR
5.839	1.8	no_response	n/a	1.0	n/a	n	BL
7.645	2.0	2-back	0.0	1.0	0.843	g	BL
9.668	2.0	2-back	0.0	1.0	0.979	p	TR
11.691	2.0	2-back	1.0	1.0	0.706	g	TL
13.714	2.0	2-back	0.0	1.0	0.736	s	TL
15.737	2.0	2-back	0.0	1.0	0.9	f	BL
17.759	2.0	2-back	1.0	1.0	0.607	s	TR
19.782	2.0	2-back	1.0	1.0	0.879	f	TR
21.805	2.0	2-back	0.0	1.0	0.719	c	TL
23.828	2.0	2-back	0.0	1.0	0.898	x	BR
25.851	2.0	2-back	1.0	1.0	0.799	c	BL
27.874	2.0	2-back	0.0	1.0	0.727	l	TL
29.897	2.0	2-back	0.0	1.0	0.691	v	TL
31.92	2.0	2-back	0.0	1.0	0.529	p	TR
33.943	2.0	2-back	1.0	1.0	0.941	v	BR
35.966	2.0	2-back	0.0	1.0	0.88	c	TL
37.989	2.0	2-back	0.0	1.0	0.917	s	TL
40.012	2.0	2-back	0.0	1.0	0.778	t	BL
42.035	2.0	2-back	0.0	1.0	0.788	x	BR
44.058	2.0	2-back	1.0	1.0	0.578	t	TL
46.081	2.0	2-back	0.0	1.0	0.675	r	BL
48.104	2.0	2-back	0.0	0.0	0.764	n	BR
50.127	2.0	2-back	1.0	0.0	0.694	r	BR
52.15	2.0	2-back	0.0	1.0	0.829	l	TR
54.173	2.0	2-back	0.0	0.0	0.739	v	BL
56.196	2.0	2-back	1.0	0.0	0.756	l	BR
58.219	2.0	2-back	1.0	0.0	0.736	v	TR
60.242	2.0	2-back	0.0	0.0	0.659	s	BL
62.265	2.0	2-back	0.0	1.0	0.618	t	BR
64.288	2.0	2-back	0.0	1.0	0.643	c	BR
66.311	2.0	2-back	1.0	1.0	0.746	t	TR
68.334	2.0	2-back	0.0	1.0	0.612	n	TL
70.357	2.0	2-back	0.0	1.0	0.774	l	BR
72.38	2.0	2-back	1.0	0.0	0.555	n	TR
74.403	2.0	2-back	0.0	0.0	0.652	p	TL
76.426	2.0	2-back	0.0	1.0	0.565	x	BL
78.448	2.0	2-back	1.0	0.0	0.693	p	TR
80.471	2.0	2-back	0.0	1.0	0.697	f	BR
82.494	2.0	2-back	0.0	1.0	0.56	z	TL
84.517	2.0	2-back	1.0	1.0	0.508	f	TR
86.54	2.0	2-back	0.0	1.0	0.453	r	BL
88.563	2.0	2-back	0.0	1.0	0.781	x	BR
90.586	2.0	2-back	1.0	1.0	0.766	r	TR
92.609	2.0	2-back	0.0	1.0	0.483	g	BL
94.632	2.0	2-back	0.0	1.0	0.989	z	BL
96.655	2.0	2-back	1.0	0.0	0.834	g	TL
98.678	2.0	2-back	1.0	0.0	0.872	z	BR
104.732	2.0	baseline	n/a	1.0	n/a	blackcross.bmp	n/a
106.789	2.0	baseline	1.0	1.0	0.523	redcross.bmp	n/a
108.845	2.0	baseline	n/a	1.0	n/a	blackcross.bmp	n/a
110.901	2.0	baseline	n/a	1.0	n/a	blackcross.bmp	n/a
112.958	2.0	baseline	n/a	1.0	n/a	blackcross.bmp	n/a
115.014	2.0	baseline	n/a	1.0	n/a	blackcross.bmp	n/a
117.071	2.0	baseline	1.0	1.0	0.398	redcross.bmp	n/a
119.127	2.0	baseline	n/a	1.0	n/a	blackcross.bmp	n/a
121.183	2.0	baseline	n/a	1.0	n/a	blackcross.bmp	n/a
123.24	2.0	baseline	n/a	1.0	n/a	blackcross.bmp	n/a
125.296	2.0	baseline	1.0	1.0	0.573	redcross.bmp	n/a
127.353	2.0	baseline	1.0	1.0	0.73	redcross.bmp	n/a
133.42	1.8	no_response	n/a	1.0	n/a	l	TR
135.225	2.0	1-back	1.0	1.0	0.684	l	BL
137.248	2.0	1-back	0.0	1.0	0.472	s	TR
139.271	2.0	1-back	0.0	1.0	0.684	z	BL
141.294	2.0	1-back	0.0	1.0	0.621	t	TL
143.317	2.0	1-back	0.0	1.0	0.618	x	BR
145.34	2.0	1-back	1.0	1.0	0.421	x	TL
147.363	2.0	1-back	0.0	1.0	0.576	n	BL
149.386	2.0	1-back	0.0	1.0	0.719	s	TR
151.409	2.0	1-back	0.0	1.0	0.833	l	BR
153.432	2.0	1-back	1.0	0.0	0.698	l	TL
155.455	2.0	1-back	0.0	1.0	1.105	g	BR
157.478	2.0	1-back	1.0	1.0	0.942	g	TR
159.501	2.0	1-back	0.0	1.0	0.879	r	TL
161.524	2.0	1-back	1.0	1.0	0.899	r	TR
163.547	2.0	1-back	0.0	1.0	0.627	x	BL
165.57	2.0	1-back	0.0	1.0	0.897	p	TR
167.593	2.0	1-back	1.0	1.0	0.952	p	TL
169.616	2.0	1-back	0.0	1.0	0.903	c	TR
171.639	2.0	1-back	0.0	1.0	0.904	r	BL
173.662	2.0	1-back	0.0	1.0	0.928	f	TR
175.685	2.0	1-back	1.0	1.0	1.05	f	BR
177.708	2.0	1-back	1.0	1.0	1.086	f	BL
179.731	2.0	1-back	0.0	1.0	0.82	c	TL
181.753	2.0	1-back	0.0	1.0	0.673	z	BL
183.776	2.0	1-back	1.0	1.0	0.788	z	BR
185.799	2.0	1-back	0.0	1.0	0.863	v	BL
187.822	2.0	1-back	0.0	1.0	0.859	p	TL
189.845	2.0	1-back	1.0	1.0	0.647	p	TR
191.868	2.0	1-back	0.0	1.0	0.717	n	BR
193.891	2.0	1-back	0.0	1.0	0.8	s	BL
195.914	2.0	1-back	1.0	0.0	0.929	s	TL
197.937	2.0	1-back	0.0	1.0	0.852	z	TR
199.96	2.0	1-back	0.0	1.0	0.881	v	BL
201.983	2.0	1-back	0.0	1.0	0.863	t	BR
204.006	2.0	1-back	1.0	1.0	0.899	t	TL
206.029	2.0	1-back	1.0	1.0	0.851	t	BR
208.052	2.0	1-back	0.0	1.0	0.729	g	TL
210.075	2.0	1-back	0.0	1.0	0.747	x	BR
212.098	2.0	1-back	0.0	1.0	0.796	g	BL
214.121	2.0	1-back	0.0	1.0	0.677	c	TL
216.144	2.0	1-back	1.0	1.0	0.811	c	TR
218.167	2.0	1-back	0.0	1.0	0.875	v	BR
220.19	2.0	1-back	1.0	1.0	0.575	v	TL
222.213	2.0	1-back	0.0	1.0	0.511	f	TR
224.236	2.0	1-back	0.0	1.0	0.847	r	BR
226.259	2.0	1-back	0.0	1.0	0.509	n	BL
228.282	2.0	1-back	1.0	1.0	0.962	n	BR
234.336	2.0	baseline	n/a	1.0	n/a	blackcross.bmp	n/a
236.392	2.0	baseline	n/a	1.0	n/a	blackcross.bmp	n/a
238.449	2.0	baseline	1.0	1.0	0.504	redcross.bmp	n/a
240.505	2.0	baseline	n/a	1.0	n/a	blackcross.bmp	n/a
242.561	2.0	baseline	n/a	1.0	n/a	blackcross.bmp	n/a
244.618	2.0	baseline	1.0	1.0	0.496	redcross.bmp	n/a
246.674	2.0	baseline	n/a	1.0	n/a	blackcross.bmp	n/a
248.731	2.0	baseline	n/a	1.0	n/a	blackcross.bmp	n/a
250.787	2.0	baseline	n/a	1.0	n/a	blackcross.bmp	n/a
252.843	2.0	baseline	1.0	1.0	0.393	redcross.bmp	n/a
254.9	2.0	baseline	n/a	1.0	n/a	blackcross.bmp	n/a
256.956	2.0	baseline	1.0	1.0	0.554	redcross.bmp	n/a
