onset	duration	trial_type	correct_response	accuracy	response_time	stimulus	position
4.05	1.8	no_response	n/a	0.0	1.231	l	TR
5.856	2.0	1-back	1.0	0.0	0.969	l	BL
7.879	2.0	1-back	0.0	0.0	n/a	s	TR
9.902	2.0	1-back	0.0	1.0	0.422	z	BL
11.925	2.0	1-back	0.0	1.0	0.583	t	TL
13.948	2.0	1-back	0.0	1.0	0.415	x	BR
15.971	2.0	1-back	1.0	0.0	0.41	x	TL
17.994	2.0	1-back	0.0	1.0	0.155	n	BL
20.017	2.0	1-back	0.0	1.0	0.55	s	TR
22.04	2.0	1-back	0.0	1.0	0.374	l	BR
24.063	2.0	1-back	1.0	0.0	0.599	l	TL
26.086	2.0	1-back	0.0	1.0	0.363	g	BR
28.108	2.0	1-back	1.0	1.0	0.478	g	TR
30.131	2.0	1-back	0.0	1.0	0.504	r	TL
32.154	2.0	1-back	1.0	0.0	0.741	r	TR
34.177	2.0	1-back	0.0	1.0	1.082	x	BL
36.2	2.0	1-back	0.0	1.0	0.533	p	TR
38.223	2.0	1-back	1.0	1.0	0.491	p	TL
40.246	2.0	1-back	0.0	1.0	0.439	c	TR
42.269	2.0	1-back	0.0	1.0	0.505	r	BL
44.292	2.0	1-back	0.0	1.0	0.746	f	TR
46.315	2.0	1-back	1.0	1.0	0.847	f	BR
48.338	2.0	1-back	1.0	1.0	0.99	f	BL
50.361	2.0	1-back	0.0	1.0	0.792	c	TL
52.384	2.0	1-back	0.0	1.0	1.161	z	BL
54.407	2.0	1-back	1.0	1.0	0.792	z	BR
56.43	2.0	1-back	0.0	0.0	n/a	v	BL
58.453	2.0	1-back	0.0	0.0	n/a	p	TL
60.476	2.0	1-back	1.0	1.0	0.975	p	TR
62.499	2.0	1-back	0.0	0.0	0.784	n	BR
64.522	2.0	1-back	0.0	1.0	0.506	s	BL
66.545	2.0	1-back	1.0	1.0	0.871	s	TL
68.568	2.0	1-back	0.0	1.0	0.671	z	TR
70.591	2.0	1-back	0.0	0.0	n/a	v	BL
72.614	2.0	1-back	0.0	1.0	0.418	t	BR
74.637	2.0	1-back	1.0	0.0	0.024	t	TL
76.66	2.0	1-back	1.0	0.0	0.473	t	BR
78.683	2.0	1-back	0.0	1.0	0.488	g	TL
80.706	2.0	1-back	0.0	0.0	n/a	x	BR
82.729	2.0	1-back	0.0	1.0	0.236	g	BL
84.752	2.0	1-back	0.0	0.0	n/a	c	TL
86.775	2.0	1-back	1.0	0.0	0.431	c	TR
88.798	2.0	1-back	0.0	1.0	0.683	v	BR
90.821	2.0	1-back	1.0	0.0	n/a	v	TL
92.844	2.0	1-back	0.0	1.0	0.568	f	TR
94.867	2.0	1-back	0.0	1.0	0.455	r	BR
96.89	2.0	1-back	0.0	1.0	0.36	n	BL
98.913	2.0	1-back	1.0	0.0	n/a	n	BR
104.967	2.0	baseline	n/a	1.0	n/a	blackcross.bmp	n/a
107.023	2.0	baseline	n/a	1.0	n/a	blackcross.bmp	n/a
109.08	2.0	baseline	1.0	1.0	0.741	redcross.bmp	n/a
111.136	2.0	baseline	n/a	1.0	n/a	blackcross.bmp	n/a
113.193	2.0	baseline	n/a	1.0	n/a	blackcross.bmp	n/a
115.249	2.0	baseline	1.0	0.0	n/a	redcross.bmp	n/a
117.305	2.0	baseline	n/a	1.0	n/a	blackcross.bmp	n/a
119.362	2.0	baseline	n/a	1.0	n/a	blackcross.bmp	n/a
121.418	2.0	baseline	n/a	1.0	n/a	blackcross.bmp	n/a
123.475	2.0	baseline	1.0	1.0	1.109	redcross.bmp	n/a
125.531	2.0	baseline	n/a	1.0	n/a	blackcross.bmp	n/a
127.587	2.0	baseline	1.0	1.0	0.66	redcross.bmp	n/a
133.638	1.8	no_response	n/a	0.0	0.741	z	TR
135.443	1.8	no_response	n/a	1.0	n/a	n	BL
137.249	2.0	2-back	0.0	1.0	0.599	g	BL
139.272	2.0	2-back	0.0	1.0	0.691	p	TR
141.295	2.0	2-back	1.0	0.0	0.643	g	TL
143.318	2.0	2-back	0.0	1.0	0.631	s	TL
145.341	2.0	2-back	0.0	1.0	0.764	f	BL
147.364	2.0	2-back	1.0	1.0	0.662	s	TR
149.387	2.0	2-back	1.0	0.0	0.765	f	TR
151.41	2.0	2-back	0.0	1.0	0.963	c	TL
153.433	2.0	2-back	0.0	1.0	1.084	x	BR
155.456	2.0	2-back	1.0	0.0	1.097	c	BL
157.479	2.0	2-back	0.0	1.0	1.163	l	TL
159.502	2.0	2-back	0.0	1.0	0.846	v	TL
161.525	2.0	2-back	0.0	1.0	0.812	p	TR
163.548	2.0	2-back	1.0	0.0	0.906	v	BR
165.571	2.0	2-back	0.0	1.0	0.649	c	TL
167.594	2.0	2-back	0.0	1.0	0.504	s	TL
169.617	2.0	2-back	0.0	1.0	0.779	t	BL
171.64	2.0	2-back	0.0	0.0	n/a	x	BR
173.663	2.0	2-back	1.0	0.0	1.154	t	TL
175.686	2.0	2-back	0.0	1.0	0.25	r	BL
177.709	2.0	2-back	0.0	0.0	n/a	n	BR
179.732	2.0	2-back	1.0	0.0	n/a	r	BR
181.755	2.0	2-back	0.0	1.0	0.322	l	TR
183.778	2.0	2-back	0.0	1.0	0.672	v	BL
185.801	2.0	2-back	1.0	0.0	n/a	l	BR
187.824	2.0	2-back	1.0	0.0	n/a	v	TR
189.847	2.0	2-back	0.0	1.0	0.573	s	BL
191.87	2.0	2-back	0.0	1.0	0.605	t	BR
193.892	2.0	2-back	0.0	0.0	n/a	c	BR
195.915	2.0	2-back	1.0	0.0	0.468	t	TR
197.938	2.0	2-back	0.0	1.0	0.362	n	TL
199.961	2.0	2-back	0.0	1.0	0.141	l	BR
201.984	2.0	2-back	1.0	0.0	0.62	n	TR
204.007	2.0	2-back	0.0	1.0	0.231	p	TL
206.03	2.0	2-back	0.0	1.0	0.719	x	BL
208.053	2.0	2-back	1.0	1.0	0.681	p	TR
210.076	2.0	2-back	0.0	1.0	0.754	f	BR
212.099	2.0	2-back	0.0	0.0	n/a	z	TL
214.122	2.0	2-back	1.0	0.0	0.852	f	TR
216.145	2.0	2-back	0.0	0.0	n/a	r	BL
218.168	2.0	2-back	0.0	0.0	n/a	x	BR
220.191	2.0	2-back	1.0	0.0	1.146	r	TR
222.214	2.0	2-back	0.0	0.0	n/a	g	BL
224.237	2.0	2-back	0.0	1.0	0.194	z	BL
226.26	2.0	2-back	1.0	0.0	0.385	g	TL
228.283	2.0	2-back	1.0	0.0	0.102	z	BR
234.337	2.0	baseline	n/a	1.0	n/a	blackcross.bmp	n/a
236.394	2.0	baseline	1.0	0.0	n/a	redcross.bmp	n/a
238.45	2.0	baseline	n/a	1.0	n/a	blackcross.bmp	n/a
240.507	2.0	baseline	n/a	1.0	n/a	blackcross.bmp	n/a
242.563	2.0	baseline	n/a	0.0	0.189	blackcross.bmp	n/a
244.619	2.0	baseline	n/a	1.0	n/a	blackcross.bmp	n/a
246.676	2.0	baseline	1.0	0.0	n/a	redcross.bmp	n/a
248.732	2.0	baseline	n/a	1.0	n/a	blackcross.bmp	n/a
250.789	2.0	baseline	n/a	1.0	n/a	blackcross.bmp	n/a
252.845	2.0	baseline	n/a	1.0	n/a	blackcross.bmp	n/a
254.901	2.0	baseline	1.0	0.0	n/a	redcross.bmp	n/a
256.958	2.0	baseline	1.0	0.0	n/a	redcross.bmp	n/a
