onset	duration	trial_type	correct_response	accuracy	response_time	stimulus	position
4.026	1.8	no_response	n/a	1.0	n/a	l	TR
5.825	2.0	1-back	1.0	1.0	0.624	l	BL
7.841	2.0	1-back	0.0	1.0	0.605	s	TR
9.856	2.0	1-back	0.0	1.0	0.503	z	BL
11.872	2.0	1-back	0.0	1.0	0.475	t	TL
13.888	2.0	1-back	0.0	1.0	0.483	x	BR
15.903	2.0	1-back	1.0	1.0	0.601	x	TL
17.919	2.0	1-back	0.0	1.0	0.604	n	BL
19.935	2.0	1-back	0.0	1.0	0.597	s	TR
21.951	2.0	1-back	0.0	1.0	0.501	l	BR
23.966	2.0	1-back	1.0	1.0	0.502	l	TL
25.982	2.0	1-back	0.0	1.0	0.47	g	BR
27.998	2.0	1-back	1.0	1.0	0.469	g	TR
30.014	2.0	1-back	0.0	1.0	0.502	r	TL
32.029	2.0	1-back	1.0	1.0	0.577	r	TR
34.045	2.0	1-back	0.0	1.0	0.612	x	BL
36.061	2.0	1-back	0.0	1.0	0.524	p	TR
38.076	2.0	1-back	1.0	1.0	0.522	p	TL
40.092	2.0	1-back	0.0	1.0	0.609	c	TR
42.108	2.0	1-back	0.0	1.0	0.468	r	BL
44.124	2.0	1-back	0.0	1.0	0.645	f	TR
46.139	2.0	1-back	1.0	1.0	0.596	f	BR
48.155	2.0	1-back	1.0	1.0	0.647	f	BL
50.171	2.0	1-back	0.0	1.0	0.437	c	TL
52.187	2.0	1-back	0.0	1.0	0.498	z	BL
54.202	2.0	1-back	1.0	1.0	0.655	z	BR
56.218	2.0	1-back	0.0	1.0	0.62	v	BL
58.234	2.0	1-back	0.0	1.0	0.474	p	TL
60.249	2.0	1-back	1.0	1.0	0.58	p	TR
62.265	2.0	1-back	0.0	1.0	0.483	n	BR
64.281	2.0	1-back	0.0	1.0	0.533	s	BL
66.297	2.0	1-back	1.0	0.0	0.685	s	TL
68.312	2.0	1-back	0.0	1.0	0.964	z	TR
70.328	2.0	1-back	0.0	1.0	0.757	v	BL
72.344	2.0	1-back	0.0	1.0	0.628	t	BR
74.36	2.0	1-back	1.0	1.0	0.58	t	TL
76.375	2.0	1-back	1.0	1.0	0.769	t	BR
78.391	2.0	1-back	0.0	1.0	0.5	g	TL
80.407	2.0	1-back	0.0	1.0	0.605	x	BR
82.422	2.0	1-back	0.0	1.0	0.47	g	BL
84.438	2.0	1-back	0.0	1.0	0.683	c	TL
86.454	2.0	1-back	1.0	1.0	0.522	c	TR
88.47	2.0	1-back	0.0	1.0	0.61	v	BR
90.485	2.0	1-back	1.0	1.0	0.544	v	TL
92.501	2.0	1-back	0.0	1.0	0.53	f	TR
94.517	2.0	1-back	0.0	1.0	0.552	r	BR
96.532	2.0	1-back	0.0	1.0	0.446	n	BL
98.548	2.0	1-back	1.0	1.0	0.585	n	BR
104.612	2.0	baseline	n/a	1.0	n/a	blackcross.bmp	n/a
106.661	2.0	baseline	n/a	1.0	n/a	blackcross.bmp	n/a
108.71	2.0	baseline	1.0	1.0	0.302	redcross.bmp	n/a
110.759	2.0	baseline	n/a	1.0	n/a	blackcross.bmp	n/a
112.808	2.0	baseline	n/a	1.0	n/a	blackcross.bmp	n/a
114.857	2.0	baseline	1.0	1.0	0.347	redcross.bmp	n/a
116.906	2.0	baseline	n/a	1.0	n/a	blackcross.bmp	n/a
118.955	2.0	baseline	n/a	1.0	n/a	blackcross.bmp	n/a
121.004	2.0	baseline	n/a	1.0	n/a	blackcross.bmp	n/a
123.053	2.0	baseline	1.0	1.0	0.75	redcross.bmp	n/a
125.102	2.0	baseline	n/a	1.0	n/a	blackcross.bmp	n/a
127.151	2.0	baseline	1.0	1.0	0.407	redcross.bmp	n/a
133.199	1.8	no_response	n/a	1.0	n/a	z	TR
134.998	1.8	no_response	n/a	1.0	n/a	n	BL
136.797	2.0	2-back	0.0	1.0	0.963	g	BL
138.813	2.0	2-back	0.0	1.0	0.797	p	TR
140.828	2.0	2-back	1.0	0.0	0.846	g	TL
142.844	2.0	2-back	0.0	0.0	0.851	s	TL
144.86	2.0	2-back	0.0	0.0	0.586	f	BL
146.876	2.0	2-back	1.0	1.0	0.723	s	TR
148.891	2.0	2-back	1.0	0.0	0.778	f	TR
150.907	2.0	2-back	0.0	1.0	0.763	c	TL
152.923	2.0	2-back	0.0	1.0	0.67	x	BR
154.939	2.0	2-back	1.0	1.0	0.881	c	BL
156.954	2.0	2-back	0.0	1.0	0.806	l	TL
158.97	2.0	2-back	0.0	1.0	0.776	v	TL
160.986	2.0	2-back	0.0	1.0	0.594	p	TR
163.001	2.0	2-back	1.0	1.0	0.665	v	BR
165.017	2.0	2-back	0.0	1.0	0.641	c	TL
167.033	2.0	2-back	0.0	0.0	0.861	s	TL
169.049	2.0	2-back	0.0	1.0	0.477	t	BL
171.064	2.0	2-back	0.0	0.0	0.834	x	BR
173.08	2.0	2-back	1.0	0.0	0.699	t	TL
175.096	2.0	2-back	0.0	1.0	0.875	r	BL
177.112	2.0	2-back	0.0	0.0	0.925	n	BR
179.127	2.0	2-back	1.0	0.0	0.879	r	BR
181.143	2.0	2-back	0.0	1.0	0.854	l	TR
183.159	2.0	2-back	0.0	1.0	0.86	v	BL
185.174	2.0	2-back	1.0	1.0	0.604	l	BR
187.19	2.0	2-back	1.0	1.0	0.791	v	TR
189.206	2.0	2-back	0.0	1.0	0.881	s	BL
191.222	2.0	2-back	0.0	1.0	0.698	t	BR
193.237	2.0	2-back	0.0	0.0	0.835	c	BR
195.253	2.0	2-back	1.0	1.0	0.945	t	TR
197.269	2.0	2-back	0.0	1.0	0.944	n	TL
199.285	2.0	2-back	0.0	0.0	0.953	l	BR
201.3	2.0	2-back	1.0	0.0	0.714	n	TR
203.316	2.0	2-back	0.0	1.0	0.795	p	TL
205.332	2.0	2-back	0.0	1.0	0.593	x	BL
207.347	2.0	2-back	1.0	1.0	0.737	p	TR
209.363	2.0	2-back	0.0	1.0	0.752	f	BR
211.379	2.0	2-back	0.0	0.0	0.747	z	TL
213.395	2.0	2-back	1.0	0.0	0.475	f	TR
215.41	2.0	2-back	0.0	1.0	0.766	r	BL
217.426	2.0	2-back	0.0	0.0	0.878	x	BR
219.442	2.0	2-back	1.0	1.0	0.844	r	TR
221.457	2.0	2-back	0.0	1.0	0.609	g	BL
223.473	2.0	2-back	0.0	1.0	0.715	z	BL
225.489	2.0	2-back	1.0	1.0	0.681	g	TL
227.505	2.0	2-back	1.0	0.0	0.405	z	BR
233.568	2.0	baseline	n/a	1.0	n/a	blackcross.bmp	n/a
235.617	2.0	baseline	1.0	1.0	0.31	redcross.bmp	n/a
237.666	2.0	baseline	n/a	1.0	n/a	blackcross.bmp	n/a
239.715	2.0	baseline	n/a	1.0	n/a	blackcross.bmp	n/a
241.764	2.0	baseline	n/a	1.0	n/a	blackcross.bmp	n/a
243.813	2.0	baseline	n/a	1.0	n/a	blackcross.bmp	n/a
245.862	2.0	baseline	1.0	1.0	0.299	redcross.bmp	n/a
247.912	2.0	baseline	n/a	1.0	n/a	blackcross.bmp	n/a
249.961	2.0	baseline	n/a	1.0	n/a	blackcross.bmp	n/a
252.01	2.0	baseline	n/a	1.0	n/a	blackcross.bmp	n/a
254.059	2.0	baseline	1.0	1.0	0.478	redcross.bmp	n/a
256.108	2.0	baseline	1.0	1.0	0.454	redcross.bmp	n/a
