onset	duration	trial_type	correct_response	accuracy	response_time	stimulus	position
4.084	1.8	no_response	n/a	1.0	n/a	r	TL
5.89	2.0	1-back	1.0	1.0	0.622	r	TR
7.896	2.0	1-back	0.0	1.0	1.044	g	BR
9.902	2.0	1-back	1.0	1.0	0.721	g	TL
11.908	2.0	1-back	0.0	1.0	0.737	f	TR
13.914	2.0	1-back	0.0	1.0	0.806	t	BL
15.921	2.0	1-back	0.0	1.0	0.702	v	TL
17.927	2.0	1-back	0.0	1.0	0.501	p	TR
19.933	2.0	1-back	1.0	1.0	0.547	p	BL
21.939	2.0	1-back	0.0	1.0	0.533	z	BR
23.946	2.0	1-back	0.0	1.0	0.516	s	TR
25.952	2.0	1-back	1.0	1.0	0.595	s	BL
27.958	2.0	1-back	0.0	1.0	0.577	c	TL
29.964	2.0	1-back	1.0	0.0	0.916	c	BR
31.971	2.0	1-back	0.0	1.0	0.622	l	BR
33.977	2.0	1-back	0.0	1.0	0.473	n	BL
35.983	2.0	1-back	0.0	1.0	0.566	v	TL
37.989	2.0	1-back	1.0	1.0	0.447	v	TR
39.996	2.0	1-back	0.0	1.0	0.592	z	BR
42.002	2.0	1-back	0.0	1.0	0.601	s	TL
44.008	2.0	1-back	0.0	1.0	0.515	x	TR
46.014	2.0	1-back	1.0	1.0	0.565	x	BL
48.021	2.0	1-back	1.0	1.0	0.578	x	BR
50.027	2.0	1-back	0.0	1.0	0.637	v	TR
52.033	2.0	1-back	0.0	1.0	0.582	z	TL
54.039	2.0	1-back	1.0	0.0	0.501	z	BR
56.046	2.0	1-back	0.0	0.0	0.474	f	BL
58.052	2.0	1-back	0.0	1.0	0.432	r	TR
60.058	2.0	1-back	1.0	0.0	n/a	r	BL
62.064	2.0	1-back	0.0	1.0	0.495	n	TL
64.071	2.0	1-back	0.0	1.0	0.49	l	BL
66.077	2.0	1-back	1.0	1.0	0.357	l	BR
68.083	2.0	1-back	0.0	1.0	0.371	s	TL
70.089	2.0	1-back	0.0	1.0	0.429	g	TR
72.096	2.0	1-back	0.0	1.0	0.411	c	BL
74.102	2.0	1-back	1.0	1.0	0.616	c	TR
76.108	2.0	1-back	0.0	1.0	0.319	f	BR
78.114	2.0	1-back	1.0	0.0	0.417	f	TL
80.121	2.0	1-back	0.0	0.0	0.576	t	TR
82.127	2.0	1-back	0.0	1.0	0.381	x	BL
84.133	2.0	1-back	0.0	1.0	0.495	p	TL
86.139	2.0	1-back	1.0	0.0	0.405	p	BL
88.146	2.0	1-back	0.0	1.0	0.559	n	BR
90.152	2.0	1-back	1.0	1.0	0.392	n	TL
92.158	2.0	1-back	0.0	1.0	0.364	g	BR
94.164	2.0	1-back	0.0	1.0	0.593	l	BL
96.171	2.0	1-back	0.0	1.0	0.404	t	TR
98.177	2.0	1-back	1.0	1.0	0.419	t	BR
104.248	2.0	baseline	1.0	1.0	0.459	redcross.bmp	n/a
106.304	2.0	baseline	n/a	1.0	n/a	blackcross.bmp	n/a
108.36	2.0	baseline	1.0	1.0	0.467	redcross.bmp	n/a
110.417	2.0	baseline	n/a	1.0	n/a	blackcross.bmp	n/a
112.473	2.0	baseline	n/a	1.0	n/a	blackcross.bmp	n/a
114.53	2.0	baseline	n/a	1.0	n/a	blackcross.bmp	n/a
116.586	2.0	baseline	1.0	1.0	0.359	redcross.bmp	n/a
118.642	2.0	baseline	n/a	1.0	n/a	blackcross.bmp	n/a
120.699	2.0	baseline	n/a	1.0	n/a	blackcross.bmp	n/a
122.755	2.0	baseline	n/a	1.0	n/a	blackcross.bmp	n/a
124.812	2.0	baseline	1.0	1.0	0.452	redcross.bmp	n/a
126.868	2.0	baseline	n/a	1.0	n/a	blackcross.bmp	n/a
132.918	1.8	no_response	n/a	1.0	n/a	v	TR
134.724	1.8	no_response	n/a	1.0	n/a	r	BR
136.53	2.0	2-back	1.0	1.0	0.707	v	TL
138.536	2.0	2-back	0.0	1.0	0.718	g	TR
140.542	2.0	2-back	0.0	1.0	0.839	p	BL
142.548	2.0	2-back	1.0	1.0	0.538	g	BR
144.555	2.0	2-back	0.0	1.0	0.816	n	TL
146.561	2.0	2-back	0.0	1.0	0.654	x	TR
148.567	2.0	2-back	0.0	1.0	0.582	l	BR
150.573	2.0	2-back	0.0	1.0	0.597	c	TL
152.58	2.0	2-back	1.0	1.0	0.65	l	BL
154.586	2.0	2-back	1.0	1.0	0.81	c	TR
156.592	2.0	2-back	0.0	1.0	0.756	t	BR
158.598	2.0	2-back	0.0	1.0	0.835	n	TL
160.605	2.0	2-back	1.0	1.0	0.782	t	BR
162.611	2.0	2-back	0.0	1.0	0.722	f	TR
164.617	2.0	2-back	0.0	0.0	0.943	n	BR
166.623	2.0	2-back	0.0	1.0	0.629	x	TL
168.63	2.0	2-back	1.0	1.0	0.797	n	BL
170.636	2.0	2-back	0.0	1.0	0.353	r	TR
172.642	2.0	2-back	0.0	1.0	0.56	f	TL
174.648	2.0	2-back	1.0	0.0	0.569	r	BR
176.655	2.0	2-back	0.0	1.0	0.779	s	TR
178.661	2.0	2-back	0.0	1.0	1.141	v	BL
180.667	2.0	2-back	0.0	1.0	0.663	p	TL
182.673	2.0	2-back	1.0	1.0	0.635	v	TR
184.68	2.0	2-back	0.0	1.0	0.717	s	BL
186.686	2.0	2-back	0.0	1.0	0.866	p	BR
188.692	2.0	2-back	1.0	0.0	0.492	s	TR
190.698	2.0	2-back	0.0	1.0	0.804	g	BL
192.705	2.0	2-back	0.0	1.0	0.82	z	TL
194.711	2.0	2-back	0.0	1.0	0.754	r	BR
196.717	2.0	2-back	1.0	1.0	0.81	z	BL
198.723	2.0	2-back	0.0	1.0	0.875	c	BL
200.73	2.0	2-back	0.0	0.0	0.818	t	BR
202.736	2.0	2-back	1.0	1.0	0.828	c	TL
204.742	2.0	2-back	1.0	0.0	0.59	t	BL
206.748	2.0	2-back	0.0	1.0	0.799	s	BR
208.755	2.0	2-back	0.0	1.0	0.526	x	BL
210.761	2.0	2-back	0.0	1.0	0.496	f	TR
212.767	2.0	2-back	1.0	1.0	0.623	x	TR
214.773	2.0	2-back	1.0	0.0	0.433	f	BR
216.78	2.0	2-back	0.0	1.0	0.494	l	TL
218.786	2.0	2-back	0.0	1.0	0.517	p	BL
220.792	2.0	2-back	1.0	0.0	0.571	l	BL
222.798	2.0	2-back	0.0	1.0	0.502	z	TL
224.805	2.0	2-back	0.0	1.0	0.58	g	TL
226.811	2.0	2-back	1.0	1.0	0.828	z	TR
232.848	2.0	baseline	n/a	1.0	n/a	blackcross.bmp	n/a
234.905	2.0	baseline	1.0	1.0	0.417	redcross.bmp	n/a
236.961	2.0	baseline	n/a	1.0	n/a	blackcross.bmp	n/a
239.017	2.0	baseline	n/a	1.0	n/a	blackcross.bmp	n/a
241.074	2.0	baseline	n/a	1.0	n/a	blackcross.bmp	n/a
243.13	2.0	baseline	1.0	1.0	0.442	redcross.bmp	n/a
245.187	2.0	baseline	n/a	1.0	n/a	blackcross.bmp	n/a
247.243	2.0	baseline	n/a	1.0	n/a	blackcross.bmp	n/a
249.299	2.0	baseline	n/a	1.0	n/a	blackcross.bmp	n/a
251.356	2.0	baseline	n/a	1.0	n/a	blackcross.bmp	n/a
253.412	2.0	baseline	1.0	1.0	1.078	redcross.bmp	n/a
255.469	2.0	baseline	1.0	1.0	0.515	redcross.bmp	n/a
