onset	duration	trial_type	correct_response	accuracy	response_time	stimulus	position
4.026	1.8	no_response	n/a	1.0	n/a	c	TR
5.825	1.8	no_response	n/a	1.0	n/a	g	BL
7.624	2.0	2-back	1.0	1.0	0.781	c	BL
9.64	2.0	2-back	0.0	1.0	0.756	p	TR
11.656	2.0	2-back	0.0	1.0	0.771	v	TL
13.671	2.0	2-back	1.0	1.0	0.76	p	TL
15.687	2.0	2-back	0.0	1.0	0.643	s	BL
17.703	2.0	2-back	0.0	1.0	0.752	x	TR
19.718	2.0	2-back	1.0	1.0	0.703	s	TR
21.734	2.0	2-back	1.0	0.0	0.611	x	TL
23.75	2.0	2-back	0.0	1.0	0.535	n	BR
25.766	2.0	2-back	0.0	1.0	0.735	f	BL
27.781	2.0	2-back	1.0	1.0	0.894	n	TL
29.797	2.0	2-back	0.0	1.0	0.695	t	TL
31.813	2.0	2-back	0.0	1.0	0.802	l	TR
33.829	2.0	2-back	0.0	1.0	0.953	r	BR
35.844	2.0	2-back	1.0	1.0	0.801	l	TL
37.86	2.0	2-back	0.0	1.0	0.658	z	TL
39.876	2.0	2-back	0.0	1.0	0.844	v	BL
41.891	2.0	2-back	0.0	1.0	0.744	t	BR
43.907	2.0	2-back	0.0	1.0	0.775	g	TL
45.923	2.0	2-back	1.0	1.0	0.747	t	BL
47.939	2.0	2-back	0.0	1.0	0.789	f	BR
49.954	2.0	2-back	0.0	1.0	0.812	r	BR
51.97	2.0	2-back	1.0	1.0	0.902	f	TR
53.986	2.0	2-back	0.0	1.0	0.856	z	BL
56.001	2.0	2-back	0.0	1.0	0.918	c	BR
58.017	2.0	2-back	0.0	1.0	0.834	g	TR
60.033	2.0	2-back	1.0	1.0	0.838	c	BL
62.049	2.0	2-back	0.0	1.0	0.851	p	BR
64.064	2.0	2-back	0.0	1.0	0.824	v	BR
66.08	2.0	2-back	1.0	0.0	0.999	p	TR
68.096	2.0	2-back	0.0	1.0	0.76	s	TL
70.112	2.0	2-back	0.0	1.0	0.762	t	BR
72.127	2.0	2-back	1.0	1.0	0.897	s	TR
74.143	2.0	2-back	0.0	1.0	0.53	r	TL
76.159	2.0	2-back	0.0	1.0	0.688	z	BL
78.174	2.0	2-back	1.0	1.0	0.763	r	TR
80.19	2.0	2-back	1.0	0.0	0.413	z	BR
82.206	2.0	2-back	0.0	0.0	0.644	n	TL
84.222	2.0	2-back	0.0	1.0	0.557	g	TR
86.237	2.0	2-back	1.0	0.0	0.571	n	BL
88.253	2.0	2-back	0.0	1.0	0.592	x	BR
90.269	2.0	2-back	0.0	1.0	0.725	v	TR
92.285	2.0	2-back	1.0	1.0	0.88	x	BL
94.3	2.0	2-back	0.0	1.0	0.646	l	BL
96.316	2.0	2-back	0.0	1.0	0.846	f	TL
98.332	2.0	2-back	1.0	0.0	0.754	l	BR
104.395	2.0	baseline	n/a	1.0	n/a	blackcross.bmp	n/a
106.444	2.0	baseline	1.0	1.0	0.797	redcross.bmp	n/a
108.493	2.0	baseline	n/a	1.0	n/a	blackcross.bmp	n/a
110.542	2.0	baseline	1.0	1.0	0.544	redcross.bmp	n/a
112.591	2.0	baseline	n/a	1.0	n/a	blackcross.bmp	n/a
114.641	2.0	baseline	n/a	1.0	n/a	blackcross.bmp	n/a
116.69	2.0	baseline	n/a	1.0	n/a	blackcross.bmp	n/a
118.739	2.0	baseline	1.0	1.0	0.668	redcross.bmp	n/a
120.788	2.0	baseline	n/a	1.0	n/a	blackcross.bmp	n/a
122.837	2.0	baseline	1.0	0.0	n/a	redcross.bmp	n/a
124.886	2.0	baseline	n/a	1.0	n/a	blackcross.bmp	n/a
126.935	2.0	baseline	n/a	1.0	n/a	blackcross.bmp	n/a
132.982	1.8	no_response	n/a	1.0	n/a	v	TR
134.781	2.0	1-back	1.0	1.0	0.79	v	BL
136.797	2.0	1-back	0.0	1.0	0.52	p	TR
138.813	2.0	1-back	0.0	1.0	0.67	g	BL
140.829	2.0	1-back	1.0	1.0	0.955	g	TL
142.844	2.0	1-back	0.0	1.0	0.525	z	BR
144.86	2.0	1-back	0.0	1.0	0.625	l	TL
146.876	2.0	1-back	0.0	1.0	0.587	t	BL
148.891	2.0	1-back	1.0	1.0	0.659	t	TR
150.907	2.0	1-back	0.0	1.0	0.546	s	BR
152.923	2.0	1-back	0.0	1.0	0.694	l	TL
154.939	2.0	1-back	0.0	1.0	0.88	x	BR
156.954	2.0	1-back	1.0	1.0	0.723	x	TR
158.97	2.0	1-back	1.0	1.0	0.616	x	TL
160.986	2.0	1-back	0.0	1.0	0.546	s	TR
163.002	2.0	1-back	1.0	1.0	0.852	s	BL
165.017	2.0	1-back	0.0	1.0	0.538	n	TR
167.033	2.0	1-back	0.0	1.0	0.642	r	TL
169.049	2.0	1-back	0.0	1.0	0.821	s	TR
171.064	2.0	1-back	0.0	1.0	0.767	t	BL
173.08	2.0	1-back	1.0	1.0	0.765	t	TR
175.096	2.0	1-back	0.0	1.0	0.623	l	BR
177.112	2.0	1-back	0.0	1.0	0.675	r	BL
179.127	2.0	1-back	0.0	1.0	0.731	f	TL
181.143	2.0	1-back	1.0	1.0	0.697	f	BL
183.159	2.0	1-back	0.0	1.0	0.659	z	BR
185.175	2.0	1-back	1.0	1.0	1.014	z	BL
187.19	2.0	1-back	0.0	1.0	0.565	c	TL
189.206	2.0	1-back	1.0	1.0	0.624	c	TR
191.222	2.0	1-back	0.0	1.0	0.975	p	BR
193.237	2.0	1-back	1.0	1.0	0.95	p	BL
195.253	2.0	1-back	0.0	1.0	0.725	n	TL
197.269	2.0	1-back	1.0	0.0	1.022	n	TR
199.285	2.0	1-back	0.0	1.0	0.819	f	BL
201.3	2.0	1-back	1.0	1.0	0.98	f	BR
203.316	2.0	1-back	0.0	1.0	1.029	l	TL
205.332	2.0	1-back	0.0	1.0	0.872	r	BR
207.348	2.0	1-back	1.0	1.0	0.998	r	TL
209.363	2.0	1-back	0.0	1.0	1.183	z	BR
211.379	2.0	1-back	0.0	1.0	0.774	n	BL
213.395	2.0	1-back	0.0	1.0	0.981	c	TL
215.41	2.0	1-back	1.0	1.0	0.688	c	TR
217.426	2.0	1-back	0.0	1.0	0.777	v	BR
219.442	2.0	1-back	1.0	0.0	0.913	v	TL
221.458	2.0	1-back	0.0	1.0	0.864	x	TR
223.473	2.0	1-back	0.0	1.0	0.963	g	BR
225.489	2.0	1-back	0.0	1.0	0.868	p	BL
227.505	2.0	1-back	0.0	1.0	0.821	g	BR
233.568	2.0	baseline	n/a	1.0	n/a	blackcross.bmp	n/a
235.617	2.0	baseline	n/a	1.0	n/a	blackcross.bmp	n/a
237.666	2.0	baseline	1.0	1.0	0.634	redcross.bmp	n/a
239.715	2.0	baseline	1.0	1.0	0.387	redcross.bmp	n/a
241.765	2.0	baseline	n/a	1.0	n/a	blackcross.bmp	n/a
243.814	2.0	baseline	n/a	1.0	n/a	blackcross.bmp	n/a
245.863	2.0	baseline	n/a	1.0	n/a	blackcross.bmp	n/a
247.912	2.0	baseline	1.0	1.0	0.512	redcross.bmp	n/a
249.961	2.0	baseline	n/a	1.0	n/a	blackcross.bmp	n/a
252.01	2.0	baseline	n/a	1.0	n/a	blackcross.bmp	n/a
254.059	2.0	baseline	1.0	1.0	0.461	redcross.bmp	n/a
256.108	2.0	baseline	n/a	1.0	n/a	blackcross.bmp	n/a
