onset	duration	trial_type	correct_response	accuracy	response_time	stimulus	position
4.026	1.8	no_response	n/a	1.0	n/a	r	TR
5.825	1.8	no_response	n/a	1.0	n/a	p	BL
7.624	2.0	2-back	0.0	1.0	0.909	s	BL
9.624	2.0	2-back	1.0	1.0	0.873	p	TR
11.623	2.0	2-back	0.0	1.0	0.794	c	TL
13.622	2.0	2-back	0.0	1.0	0.852	g	TL
15.621	2.0	2-back	1.0	1.0	0.675	c	BL
17.62	2.0	2-back	0.0	1.0	0.775	f	TR
19.619	2.0	2-back	0.0	1.0	0.792	x	TR
21.618	2.0	2-back	0.0	1.0	0.756	z	TL
23.617	2.0	2-back	1.0	1.0	0.836	x	BR
25.616	2.0	2-back	0.0	1.0	0.73	g	BL
27.615	2.0	2-back	0.0	1.0	0.675	v	TL
29.614	2.0	2-back	1.0	0.0	0.723	g	TL
31.613	2.0	2-back	1.0	0.0	0.535	v	TR
33.612	2.0	2-back	0.0	1.0	0.724	z	BR
35.611	2.0	2-back	0.0	1.0	0.763	n	TL
37.61	2.0	2-back	1.0	1.0	0.721	z	TL
39.61	2.0	2-back	0.0	1.0	0.864	s	BL
41.609	2.0	2-back	1.0	0.0	0.87	z	BR
43.608	2.0	2-back	0.0	1.0	0.709	t	TL
45.607	2.0	2-back	0.0	1.0	0.685	f	BL
47.606	2.0	2-back	1.0	1.0	0.932	t	BR
49.605	2.0	2-back	0.0	1.0	0.864	r	BR
51.604	2.0	2-back	0.0	1.0	0.928	c	TR
53.603	2.0	2-back	1.0	1.0	0.942	r	BL
55.602	2.0	2-back	0.0	1.0	0.944	f	BR
57.601	2.0	2-back	0.0	0.0	n/a	t	TR
59.6	2.0	2-back	1.0	1.0	0.927	f	BL
61.599	2.0	2-back	0.0	1.0	0.754	c	BR
63.598	2.0	2-back	0.0	1.0	0.76	l	BR
65.597	2.0	2-back	0.0	1.0	0.869	n	TR
67.596	2.0	2-back	1.0	1.0	0.879	l	TL
69.596	2.0	2-back	0.0	1.0	0.993	s	BR
71.595	2.0	2-back	0.0	0.0	1.089	g	TR
73.594	2.0	2-back	1.0	0.0	0.76	s	TL
75.593	2.0	2-back	0.0	1.0	0.726	l	BL
77.592	2.0	2-back	0.0	0.0	1.031	r	TR
79.591	2.0	2-back	0.0	1.0	1.047	x	BR
81.59	2.0	2-back	0.0	1.0	1.001	t	TL
83.589	2.0	2-back	1.0	1.0	1.155	x	TR
85.588	2.0	2-back	0.0	1.0	0.798	n	BL
87.587	2.0	2-back	0.0	1.0	0.704	p	BR
89.586	2.0	2-back	1.0	0.0	0.666	n	TR
91.585	2.0	2-back	1.0	1.0	0.762	p	BL
93.584	2.0	2-back	0.0	1.0	0.828	v	BL
95.583	2.0	2-back	0.0	1.0	0.689	l	TL
97.583	2.0	2-back	1.0	1.0	0.586	v	BR
103.629	2.0	baseline	n/a	1.0	n/a	blackcross.bmp	n/a
105.678	2.0	baseline	1.0	1.0	0.632	redcross.bmp	n/a
107.727	2.0	baseline	n/a	1.0	n/a	blackcross.bmp	n/a
109.777	2.0	baseline	n/a	1.0	n/a	blackcross.bmp	n/a
111.826	2.0	baseline	n/a	1.0	n/a	blackcross.bmp	n/a
113.875	2.0	baseline	1.0	1.0	0.51	redcross.bmp	n/a
115.924	2.0	baseline	n/a	1.0	n/a	blackcross.bmp	n/a
117.973	2.0	baseline	n/a	1.0	n/a	blackcross.bmp	n/a
120.022	2.0	baseline	1.0	1.0	0.43	redcross.bmp	n/a
122.071	2.0	baseline	1.0	1.0	0.613	redcross.bmp	n/a
124.12	2.0	baseline	n/a	1.0	n/a	blackcross.bmp	n/a
126.169	2.0	baseline	n/a	1.0	n/a	blackcross.bmp	n/a
132.216	1.8	no_response	n/a	1.0	n/a	c	TR
134.015	2.0	1-back	0.0	1.0	0.918	g	BL
136.015	2.0	1-back	0.0	1.0	0.791	p	TR
138.014	2.0	1-back	1.0	1.0	0.754	p	BL
140.013	2.0	1-back	0.0	1.0	0.53	t	TL
142.012	2.0	1-back	0.0	1.0	0.484	v	BR
144.011	2.0	1-back	1.0	1.0	0.58	v	TL
146.01	2.0	1-back	0.0	1.0	0.554	s	BL
148.009	2.0	1-back	1.0	0.0	0.554	s	TR
150.008	2.0	1-back	0.0	1.0	0.885	x	BR
152.007	2.0	1-back	0.0	1.0	0.694	n	TL
154.006	2.0	1-back	1.0	1.0	0.757	n	BR
156.005	2.0	1-back	0.0	1.0	0.694	f	TR
158.004	2.0	1-back	1.0	1.0	0.922	f	TL
160.003	2.0	1-back	0.0	1.0	0.632	l	TR
162.002	2.0	1-back	0.0	1.0	0.773	r	BL
164.001	2.0	1-back	0.0	1.0	0.862	z	TR
166.001	2.0	1-back	1.0	1.0	0.794	z	TL
168.0	2.0	1-back	0.0	1.0	0.654	c	TR
169.999	2.0	1-back	1.0	1.0	0.608	c	BL
171.998	2.0	1-back	0.0	1.0	0.702	g	TR
173.997	2.0	1-back	1.0	1.0	0.759	g	BR
175.996	2.0	1-back	0.0	1.0	0.937	x	BL
177.995	2.0	1-back	0.0	1.0	0.939	t	TL
179.994	2.0	1-back	1.0	1.0	0.761	t	BL
181.993	2.0	1-back	0.0	1.0	0.586	r	BR
183.992	2.0	1-back	0.0	1.0	0.774	p	BL
185.991	2.0	1-back	0.0	1.0	0.773	v	TL
187.99	2.0	1-back	0.0	1.0	0.797	s	TR
189.989	2.0	1-back	1.0	1.0	0.611	s	BR
191.988	2.0	1-back	0.0	1.0	0.773	x	BL
193.987	2.0	1-back	1.0	1.0	0.852	x	TL
195.987	2.0	1-back	0.0	1.0	0.752	l	TR
197.986	2.0	1-back	1.0	1.0	0.844	l	BL
199.985	2.0	1-back	0.0	1.0	0.871	n	BR
201.984	2.0	1-back	1.0	1.0	0.798	n	TL
203.983	2.0	1-back	0.0	1.0	0.747	z	BR
205.982	2.0	1-back	1.0	1.0	0.761	z	TL
207.981	2.0	1-back	0.0	1.0	0.724	c	BR
209.98	2.0	1-back	0.0	1.0	0.859	g	BL
211.979	2.0	1-back	0.0	1.0	0.683	p	TL
213.978	2.0	1-back	0.0	1.0	0.621	t	TR
215.977	2.0	1-back	0.0	1.0	0.63	v	BR
217.976	2.0	1-back	0.0	1.0	0.66	f	TL
219.975	2.0	1-back	1.0	1.0	0.704	f	TR
221.974	2.0	1-back	0.0	1.0	0.683	l	BR
223.973	2.0	1-back	0.0	1.0	0.617	r	BL
225.973	2.0	1-back	1.0	1.0	0.731	r	BR
232.019	2.0	baseline	1.0	1.0	0.535	redcross.bmp	n/a
234.068	2.0	baseline	n/a	1.0	n/a	blackcross.bmp	n/a
236.118	2.0	baseline	1.0	1.0	0.368	redcross.bmp	n/a
238.167	2.0	baseline	n/a	1.0	n/a	blackcross.bmp	n/a
240.216	2.0	baseline	n/a	1.0	n/a	blackcross.bmp	n/a
242.265	2.0	baseline	1.0	1.0	0.683	redcross.bmp	n/a
244.314	2.0	baseline	n/a	1.0	n/a	blackcross.bmp	n/a
246.363	2.0	baseline	1.0	1.0	0.639	redcross.bmp	n/a
248.412	2.0	baseline	n/a	1.0	n/a	blackcross.bmp	n/a
250.461	2.0	baseline	n/a	1.0	n/a	blackcross.bmp	n/a
252.51	2.0	baseline	n/a	1.0	n/a	blackcross.bmp	n/a
254.559	2.0	baseline	n/a	1.0	n/a	blackcross.bmp	n/a
