onset	duration	trial_type	correct_response	accuracy	response_time	stimulus	position
4.029	1.8	no_response	n/a	1.0	n/a	p	TR
5.83	2.0	1-back	0.0	1.0	0.987	f	BL
7.832	2.0	1-back	1.0	1.0	0.685	n	BL
9.833	2.0	1-back	0.0	1.0	0.404	x	TR
11.835	2.0	1-back	0.0	1.0	0.534	c	TL
13.836	2.0	1-back	1.0	0.0	0.5	p	TL
15.838	2.0	1-back	0.0	0.0	0.422	n	BL
17.839	2.0	1-back	0.0	1.0	0.364	c	TR
19.841	2.0	1-back	1.0	0.0	0.344	g	TR
21.842	2.0	1-back	0.0	1.0	0.306	n	TL
23.844	2.0	1-back	0.0	1.0	0.576	s	BR
25.845	2.0	1-back	0.0	1.0	0.638	x	BL
27.847	2.0	1-back	0.0	0.0	n/a	t	TL
29.849	2.0	1-back	1.0	0.0	0.295	g	TL
31.85	2.0	1-back	0.0	0.0	n/a	p	BR
33.852	2.0	1-back	0.0	1.0	0.902	c	TL
35.853	2.0	1-back	1.0	0.0	0.448	r	TL
37.855	2.0	1-back	0.0	0.0	0.541	t	BL
39.856	2.0	1-back	1.0	1.0	0.722	v	BL
41.858	2.0	1-back	0.0	0.0	0.695	g	BR
43.859	2.0	1-back	0.0	1.0	0.388	p	TL
45.861	2.0	1-back	0.0	1.0	0.971	x	BR
47.862	2.0	1-back	1.0	0.0	0.296	z	BR
49.864	2.0	1-back	0.0	0.0	n/a	l	TR
51.865	2.0	1-back	1.0	0.0	n/a	v	TR
53.867	2.0	1-back	0.0	0.0	0.611	n	BR
55.868	2.0	1-back	0.0	0.0	n/a	r	BL
57.87	2.0	1-back	1.0	0.0	n/a	s	BL
59.871	2.0	1-back	0.0	0.0	n/a	z	TR
61.873	2.0	1-back	0.0	0.0	n/a	l	TL
63.874	2.0	1-back	0.0	0.0	n/a	g	BR
65.876	2.0	1-back	1.0	0.0	0.421	f	BR
67.877	2.0	1-back	0.0	0.0	n/a	t	TR
69.879	2.0	1-back	0.0	1.0	0.372	z	TL
71.88	2.0	1-back	1.0	0.0	0.52	l	TL
73.882	2.0	1-back	0.0	0.0	0.622	f	BL
75.883	2.0	1-back	0.0	1.0	0.949	t	TR
77.885	2.0	1-back	1.0	0.0	0.281	r	TR
79.886	2.0	1-back	0.0	1.0	0.014	l	BR
81.888	2.0	1-back	1.0	0.0	0.296	z	BR
83.889	2.0	1-back	0.0	0.0	0.129	r	TR
85.891	2.0	1-back	1.0	1.0	0.618	v	TR
87.892	2.0	1-back	0.0	1.0	0.651	s	BL
89.894	2.0	1-back	1.0	1.0	0.912	f	BL
91.895	2.0	1-back	0.0	1.0	0.666	v	TL
93.897	2.0	1-back	0.0	1.0	0.319	x	BR
95.898	2.0	1-back	1.0	0.0	0.605	c	BR
97.9	2.0	1-back	0.0	0.0	n/a	s	BL
103.938	2.0	baseline	n/a	1.0	n/a	blackcross.bmp	n/a
105.99	2.0	baseline	n/a	1.0	n/a	blackcross.bmp	n/a
108.041	2.0	baseline	1.0	1.0	0.413	redcross.bmp	n/a
110.093	2.0	baseline	1.0	1.0	0.473	redcross.bmp	n/a
112.144	2.0	baseline	n/a	1.0	n/a	blackcross.bmp	n/a
114.196	2.0	baseline	n/a	1.0	n/a	blackcross.bmp	n/a
116.247	2.0	baseline	1.0	1.0	0.778	redcross.bmp	n/a
118.299	2.0	baseline	n/a	1.0	n/a	blackcross.bmp	n/a
120.35	2.0	baseline	n/a	0.0	0.202	blackcross.bmp	n/a
122.402	2.0	baseline	n/a	1.0	n/a	blackcross.bmp	n/a
124.453	2.0	baseline	1.0	1.0	0.512	redcross.bmp	n/a
126.505	2.0	baseline	n/a	1.0	n/a	blackcross.bmp	n/a
132.559	1.8	no_response	n/a	1.0	n/a	c	BL
134.36	1.8	no_response	n/a	0.0	1.351	l	TR
136.162	2.0	2-back	0.0	0.0	0.221	v	BR
138.163	2.0	2-back	1.0	0.0	0.552	p	TR
140.165	2.0	2-back	0.0	1.0	0.439	r	TL
142.166	2.0	2-back	0.0	0.0	0.36	t	BR
144.168	2.0	2-back	1.0	0.0	0.416	n	TL
146.169	2.0	2-back	0.0	0.0	0.712	s	TR
148.171	2.0	2-back	0.0	0.0	n/a	f	BL
150.172	2.0	2-back	1.0	1.0	0.14	x	TR
152.174	2.0	2-back	0.0	0.0	0.668	v	BR
154.175	2.0	2-back	0.0	0.0	n/a	p	BL
156.177	2.0	2-back	1.0	0.0	0.577	f	BR
158.178	2.0	2-back	0.0	0.0	0.297	n	TL
160.18	2.0	2-back	0.0	0.0	0.442	x	TR
162.181	2.0	2-back	1.0	1.0	0.479	t	TL
164.183	2.0	2-back	0.0	0.0	0.85	s	BL
166.184	2.0	2-back	0.0	1.0	0.067	l	TR
168.186	2.0	2-back	1.0	1.0	0.598	f	BL
170.187	2.0	2-back	1.0	0.0	0.51	c	TR
172.189	2.0	2-back	0.0	1.0	1.064	r	TL
174.19	2.0	2-back	1.0	1.0	0.892	g	TR
176.192	2.0	2-back	0.0	1.0	0.855	s	BL
178.193	2.0	2-back	0.0	0.0	0.349	r	BR
180.195	2.0	2-back	1.0	0.0	0.372	v	BL
182.196	2.0	2-back	0.0	0.0	n/a	p	BL
184.198	2.0	2-back	0.0	0.0	n/a	t	TL
186.199	2.0	2-back	1.0	1.0	0.861	x	BL
188.201	2.0	2-back	0.0	1.0	0.303	z	BR
190.202	2.0	2-back	0.0	0.0	n/a	t	TR
192.204	2.0	2-back	0.0	0.0	0.012	g	TL
194.205	2.0	2-back	1.0	0.0	n/a	c	TR
196.207	2.0	2-back	0.0	0.0	n/a	p	BL
198.209	2.0	2-back	0.0	0.0	0.26	s	BR
200.21	2.0	2-back	0.0	0.0	n/a	v	TL
202.212	2.0	2-back	1.0	0.0	0.284	n	BR
204.213	2.0	2-back	0.0	0.0	n/a	c	BL
206.215	2.0	2-back	0.0	1.0	0.138	l	TL
208.216	2.0	2-back	0.0	0.0	0.201	x	BR
210.218	2.0	2-back	1.0	0.0	0.253	z	TL
212.219	2.0	2-back	0.0	1.0	0.402	g	TR
214.221	2.0	2-back	0.0	0.0	0.215	f	BR
216.222	2.0	2-back	0.0	1.0	0.397	z	TL
218.224	2.0	2-back	1.0	0.0	n/a	l	BR
220.225	2.0	2-back	0.0	0.0	n/a	r	TR
222.227	2.0	2-back	1.0	0.0	0.228	z	BR
224.228	2.0	2-back	0.0	0.0	n/a	n	BL
226.23	2.0	2-back	1.0	0.0	n/a	g	BR
232.285	2.0	baseline	n/a	0.0	1.029	blackcross.bmp	n/a
234.336	2.0	baseline	n/a	1.0	n/a	blackcross.bmp	n/a
236.388	2.0	baseline	n/a	1.0	n/a	blackcross.bmp	n/a
238.439	2.0	baseline	1.0	1.0	0.386	redcross.bmp	n/a
240.491	2.0	baseline	n/a	1.0	n/a	blackcross.bmp	n/a
242.542	2.0	baseline	1.0	1.0	0.49	redcross.bmp	n/a
244.594	2.0	baseline	n/a	1.0	n/a	blackcross.bmp	n/a
246.645	2.0	baseline	n/a	1.0	n/a	blackcross.bmp	n/a
248.697	2.0	baseline	1.0	1.0	0.435	redcross.bmp	n/a
250.748	2.0	baseline	n/a	1.0	n/a	blackcross.bmp	n/a
252.8	2.0	baseline	n/a	1.0	n/a	blackcross.bmp	n/a
254.852	2.0	baseline	1.0	1.0	0.819	redcross.bmp	n/a
