onset	duration	trial_type	correct_response	accuracy	response_time	stimulus	position
4.026	1.8	no_response	n/a	1.0	n/a	t	TR
5.825	2.0	1-back	0.0	1.0	0.585	c	BR
7.841	2.0	1-back	0.0	1.0	0.963	n	BL
9.857	2.0	1-back	1.0	1.0	0.963	l	BL
11.872	2.0	1-back	0.0	1.0	0.661	g	TR
13.888	2.0	1-back	0.0	1.0	0.78	f	TL
15.904	2.0	1-back	1.0	1.0	0.825	p	TL
17.919	2.0	1-back	0.0	1.0	0.528	x	TR
19.935	2.0	1-back	1.0	1.0	0.713	n	TR
21.951	2.0	1-back	0.0	1.0	0.575	s	TL
23.967	2.0	1-back	0.0	1.0	0.723	r	BR
25.982	2.0	1-back	1.0	1.0	0.522	v	BR
27.998	2.0	1-back	0.0	1.0	0.539	l	TL
30.014	2.0	1-back	1.0	1.0	0.56	z	TL
32.029	2.0	1-back	0.0	1.0	0.606	c	TR
34.045	2.0	1-back	0.0	1.0	0.633	f	BL
36.061	2.0	1-back	0.0	0.0	0.69	p	TR
38.077	2.0	1-back	1.0	1.0	0.674	t	TR
40.092	2.0	1-back	0.0	0.0	0.825	g	BL
42.108	2.0	1-back	1.0	1.0	0.809	x	BL
44.124	2.0	1-back	0.0	1.0	0.944	c	TR
46.139	2.0	1-back	1.0	1.0	0.632	p	TR
48.155	2.0	1-back	0.0	1.0	0.804	z	TL
50.171	2.0	1-back	0.0	1.0	0.665	r	BL
52.187	2.0	1-back	1.0	1.0	0.596	n	BL
54.202	2.0	1-back	0.0	1.0	0.735	z	BR
56.218	2.0	1-back	0.0	0.0	0.765	f	BL
58.234	2.0	1-back	0.0	1.0	0.664	s	TL
60.249	2.0	1-back	0.0	1.0	0.995	v	BR
62.265	2.0	1-back	1.0	1.0	0.609	c	BR
64.281	2.0	1-back	0.0	1.0	0.571	z	TL
66.297	2.0	1-back	1.0	1.0	0.725	r	TL
68.312	2.0	1-back	0.0	1.0	0.698	l	TR
70.328	2.0	1-back	1.0	1.0	0.871	n	TR
72.344	2.0	1-back	0.0	1.0	0.766	v	BR
74.36	2.0	1-back	1.0	0.0	0.765	f	BR
76.375	2.0	1-back	0.0	0.0	0.694	r	TL
78.391	2.0	1-back	1.0	1.0	0.839	l	TL
80.407	2.0	1-back	0.0	1.0	0.678	x	BR
82.422	2.0	1-back	0.0	1.0	0.887	s	BL
84.438	2.0	1-back	0.0	1.0	0.949	g	TL
86.454	2.0	1-back	0.0	0.0	n/a	t	BL
88.47	2.0	1-back	0.0	0.0	0.754	p	BR
90.485	2.0	1-back	0.0	1.0	1.154	s	BL
92.501	2.0	1-back	1.0	1.0	0.957	x	BL
94.517	2.0	1-back	0.0	1.0	1.011	v	TR
96.532	2.0	1-back	0.0	1.0	0.827	t	BR
98.548	2.0	1-back	1.0	1.0	0.726	g	BR
104.612	2.0	baseline	n/a	1.0	n/a	blackcross.bmp	n/a
106.661	2.0	baseline	1.0	1.0	0.702	redcross.bmp	n/a
108.71	2.0	baseline	n/a	1.0	n/a	blackcross.bmp	n/a
110.759	2.0	baseline	1.0	1.0	0.49	redcross.bmp	n/a
112.808	2.0	baseline	1.0	1.0	0.705	redcross.bmp	n/a
114.857	2.0	baseline	n/a	1.0	n/a	blackcross.bmp	n/a
116.906	2.0	baseline	n/a	1.0	n/a	blackcross.bmp	n/a
118.955	2.0	baseline	n/a	1.0	n/a	blackcross.bmp	n/a
121.004	2.0	baseline	n/a	1.0	n/a	blackcross.bmp	n/a
123.053	2.0	baseline	1.0	1.0	0.827	redcross.bmp	n/a
125.102	2.0	baseline	n/a	1.0	n/a	blackcross.bmp	n/a
127.151	2.0	baseline	n/a	1.0	n/a	blackcross.bmp	n/a
133.199	1.8	no_response	n/a	1.0	n/a	r	TL
134.998	1.8	no_response	n/a	0.0	0.834	p	TR
136.797	2.0	2-back	0.0	0.0	0.766	x	BL
138.813	2.0	2-back	1.0	0.0	0.701	t	TR
140.828	2.0	2-back	0.0	0.0	0.984	g	TL
142.844	2.0	2-back	0.0	1.0	0.754	n	BL
144.86	2.0	2-back	1.0	1.0	0.504	z	TL
146.875	2.0	2-back	0.0	1.0	0.677	c	TR
148.891	2.0	2-back	0.0	1.0	0.78	v	BR
150.907	2.0	2-back	0.0	1.0	0.789	n	BL
152.923	2.0	2-back	1.0	1.0	0.804	g	BR
154.938	2.0	2-back	0.0	1.0	0.514	s	TL
156.954	2.0	2-back	0.0	1.0	0.485	v	TR
158.97	2.0	2-back	1.0	1.0	0.7	l	TL
160.986	2.0	2-back	1.0	0.0	0.393	f	TR
163.001	2.0	2-back	0.0	1.0	0.766	s	BR
165.017	2.0	2-back	0.0	0.0	0.724	c	TL
167.033	2.0	2-back	0.0	1.0	0.596	r	BL
169.048	2.0	2-back	1.0	1.0	0.618	s	TL
171.064	2.0	2-back	0.0	1.0	0.676	l	BR
173.08	2.0	2-back	0.0	1.0	0.799	z	BL
175.096	2.0	2-back	1.0	1.0	0.901	x	BR
177.111	2.0	2-back	0.0	1.0	0.72	f	TL
179.127	2.0	2-back	0.0	0.0	0.773	t	TL
181.143	2.0	2-back	0.0	1.0	0.618	x	TR
183.158	2.0	2-back	1.0	1.0	0.513	r	TL
185.174	2.0	2-back	0.0	1.0	0.719	l	BR
187.19	2.0	2-back	0.0	0.0	0.766	n	BL
189.206	2.0	2-back	1.0	1.0	0.735	s	BR
191.221	2.0	2-back	0.0	1.0	0.939	f	BR
193.237	2.0	2-back	0.0	0.0	0.9	g	BL
195.253	2.0	2-back	0.0	1.0	0.706	p	TR
197.268	2.0	2-back	1.0	0.0	0.884	v	BL
199.284	2.0	2-back	0.0	0.0	0.692	t	BR
201.3	2.0	2-back	1.0	1.0	0.707	t	BL
203.316	2.0	2-back	0.0	0.0	0.917	z	TL
205.331	2.0	2-back	0.0	1.0	0.723	f	TR
207.347	2.0	2-back	1.0	1.0	0.473	p	TL
209.363	2.0	2-back	1.0	0.0	0.441	g	TR
211.379	2.0	2-back	0.0	0.0	0.584	c	BL
213.394	2.0	2-back	1.0	0.0	0.475	r	TR
215.41	2.0	2-back	0.0	0.0	0.634	p	BR
217.426	2.0	2-back	0.0	1.0	0.462	x	TL
219.441	2.0	2-back	0.0	0.0	0.601	l	TR
221.457	2.0	2-back	0.0	1.0	0.488	z	BL
223.473	2.0	2-back	0.0	1.0	0.766	c	BR
225.489	2.0	2-back	1.0	1.0	0.697	n	BL
227.504	2.0	2-back	1.0	1.0	0.605	v	BR
233.568	2.0	baseline	1.0	1.0	0.418	redcross.bmp	n/a
235.617	2.0	baseline	n/a	1.0	n/a	blackcross.bmp	n/a
237.666	2.0	baseline	n/a	1.0	n/a	blackcross.bmp	n/a
239.715	2.0	baseline	n/a	1.0	n/a	blackcross.bmp	n/a
241.764	2.0	baseline	1.0	1.0	0.579	redcross.bmp	n/a
243.813	2.0	baseline	n/a	1.0	n/a	blackcross.bmp	n/a
245.862	2.0	baseline	n/a	1.0	n/a	blackcross.bmp	n/a
247.911	2.0	baseline	1.0	1.0	0.475	redcross.bmp	n/a
249.96	2.0	baseline	n/a	1.0	n/a	blackcross.bmp	n/a
252.009	2.0	baseline	n/a	1.0	n/a	blackcross.bmp	n/a
254.058	2.0	baseline	1.0	1.0	0.555	redcross.bmp	n/a
256.107	2.0	baseline	n/a	1.0	n/a	blackcross.bmp	n/a
