onset	duration	trial_type	correct_response	accuracy	response_time	stimulus	position
4.042	1.8	no_response	n/a	1.0	n/a	l	TR
5.841	2.0	1-back	1.0	0.0	1.021	l	BL
7.857	2.0	1-back	0.0	0.0	n/a	s	TR
9.872	2.0	1-back	0.0	1.0	1.133	z	BL
11.888	2.0	1-back	0.0	0.0	n/a	t	TL
13.904	2.0	1-back	0.0	1.0	0.633	x	BR
15.92	2.0	1-back	1.0	0.0	0.597	x	TL
17.935	2.0	1-back	0.0	1.0	0.583	n	BL
19.951	2.0	1-back	0.0	1.0	0.826	s	TR
21.967	2.0	1-back	0.0	1.0	0.602	l	BR
23.983	2.0	1-back	1.0	0.0	0.97	l	TL
25.998	2.0	1-back	0.0	1.0	0.667	g	BR
28.014	2.0	1-back	1.0	0.0	0.759	g	TR
30.03	2.0	1-back	0.0	1.0	0.645	r	TL
32.045	2.0	1-back	1.0	1.0	0.757	r	TR
34.061	2.0	1-back	0.0	1.0	0.612	x	BL
36.077	2.0	1-back	0.0	1.0	0.628	p	TR
38.093	2.0	1-back	1.0	1.0	0.733	p	TL
40.108	2.0	1-back	0.0	1.0	0.548	c	TR
42.124	2.0	1-back	0.0	0.0	0.523	r	BL
44.14	2.0	1-back	0.0	1.0	0.618	f	TR
46.156	2.0	1-back	1.0	0.0	0.749	f	BR
48.171	2.0	1-back	1.0	1.0	1.186	f	BL
50.187	2.0	1-back	0.0	1.0	0.637	c	TL
52.203	2.0	1-back	0.0	1.0	0.626	z	BL
54.218	2.0	1-back	1.0	1.0	0.642	z	BR
56.234	2.0	1-back	0.0	1.0	0.515	v	BL
58.25	2.0	1-back	0.0	0.0	0.674	p	TL
60.266	2.0	1-back	1.0	1.0	0.819	p	TR
62.281	2.0	1-back	0.0	1.0	0.514	n	BR
64.297	2.0	1-back	0.0	1.0	0.786	s	BL
66.313	2.0	1-back	1.0	1.0	0.671	s	TL
68.329	2.0	1-back	0.0	1.0	0.609	z	TR
70.344	2.0	1-back	0.0	1.0	0.906	v	BL
72.36	2.0	1-back	0.0	1.0	0.674	t	BR
74.376	2.0	1-back	1.0	1.0	0.664	t	TL
76.391	2.0	1-back	1.0	1.0	0.818	t	BR
78.407	2.0	1-back	0.0	1.0	0.548	g	TL
80.423	2.0	1-back	0.0	1.0	0.766	x	BR
82.439	2.0	1-back	0.0	0.0	0.899	g	BL
84.454	2.0	1-back	0.0	1.0	0.733	c	TL
86.47	2.0	1-back	1.0	1.0	0.738	c	TR
88.486	2.0	1-back	0.0	1.0	0.912	v	BR
90.501	2.0	1-back	1.0	0.0	n/a	v	TL
92.517	2.0	1-back	0.0	1.0	0.642	f	TR
94.533	2.0	1-back	0.0	1.0	0.963	r	BR
96.549	2.0	1-back	0.0	1.0	1.079	n	BL
98.564	2.0	1-back	1.0	1.0	0.745	n	BR
104.628	2.0	baseline	n/a	1.0	n/a	blackcross.bmp	n/a
106.677	2.0	baseline	n/a	1.0	n/a	blackcross.bmp	n/a
108.726	2.0	baseline	1.0	1.0	0.506	redcross.bmp	n/a
110.775	2.0	baseline	n/a	1.0	n/a	blackcross.bmp	n/a
112.824	2.0	baseline	n/a	1.0	n/a	blackcross.bmp	n/a
114.873	2.0	baseline	1.0	1.0	0.544	redcross.bmp	n/a
116.922	2.0	baseline	n/a	1.0	n/a	blackcross.bmp	n/a
118.971	2.0	baseline	n/a	1.0	n/a	blackcross.bmp	n/a
121.02	2.0	baseline	n/a	1.0	n/a	blackcross.bmp	n/a
123.069	2.0	baseline	1.0	1.0	0.482	redcross.bmp	n/a
125.118	2.0	baseline	n/a	1.0	n/a	blackcross.bmp	n/a
127.167	2.0	baseline	1.0	1.0	0.758	redcross.bmp	n/a
133.215	1.8	no_response	n/a	0.0	1.338	z	TR
135.014	1.8	no_response	n/a	0.0	1.034	n	BL
136.813	2.0	2-back	0.0	1.0	1.118	g	BL
138.829	2.0	2-back	0.0	1.0	1.068	p	TR
140.845	2.0	2-back	1.0	1.0	0.702	g	TL
142.86	2.0	2-back	0.0	1.0	0.72	s	TL
144.876	2.0	2-back	0.0	1.0	0.703	f	BL
146.892	2.0	2-back	1.0	1.0	0.989	s	TR
148.908	2.0	2-back	1.0	0.0	n/a	f	TR
150.923	2.0	2-back	0.0	1.0	0.56	c	TL
152.939	2.0	2-back	0.0	1.0	0.656	x	BR
154.955	2.0	2-back	1.0	0.0	0.747	c	BL
156.97	2.0	2-back	0.0	0.0	0.891	l	TL
158.986	2.0	2-back	0.0	1.0	0.476	v	TL
161.002	2.0	2-back	0.0	1.0	0.561	p	TR
163.018	2.0	2-back	1.0	0.0	0.779	v	BR
165.033	2.0	2-back	0.0	1.0	0.759	c	TL
167.049	2.0	2-back	0.0	1.0	0.797	s	TL
169.065	2.0	2-back	0.0	1.0	0.71	t	BL
171.081	2.0	2-back	0.0	1.0	0.789	x	BR
173.096	2.0	2-back	1.0	1.0	0.702	t	TL
175.112	2.0	2-back	0.0	1.0	0.527	r	BL
177.128	2.0	2-back	0.0	1.0	0.624	n	BR
179.143	2.0	2-back	1.0	1.0	0.801	r	BR
181.159	2.0	2-back	0.0	1.0	0.7	l	TR
183.175	2.0	2-back	0.0	1.0	1.007	v	BL
185.191	2.0	2-back	1.0	1.0	0.796	l	BR
187.206	2.0	2-back	1.0	1.0	0.79	v	TR
189.222	2.0	2-back	0.0	1.0	0.625	s	BL
191.238	2.0	2-back	0.0	0.0	1.07	t	BR
193.254	2.0	2-back	0.0	1.0	0.601	c	BR
195.269	2.0	2-back	1.0	0.0	0.693	t	TR
197.285	2.0	2-back	0.0	0.0	0.625	n	TL
199.301	2.0	2-back	0.0	1.0	0.506	l	BR
201.316	2.0	2-back	1.0	1.0	0.768	n	TR
203.332	2.0	2-back	0.0	1.0	0.589	p	TL
205.348	2.0	2-back	0.0	0.0	n/a	x	BL
207.364	2.0	2-back	1.0	0.0	0.383	p	TR
209.379	2.0	2-back	0.0	0.0	0.59	f	BR
211.395	2.0	2-back	0.0	1.0	0.974	z	TL
213.411	2.0	2-back	1.0	1.0	1.113	f	TR
215.426	2.0	2-back	0.0	1.0	0.972	r	BL
217.442	2.0	2-back	0.0	1.0	1.021	x	BR
219.458	2.0	2-back	1.0	1.0	1.187	r	TR
221.474	2.0	2-back	0.0	1.0	1.19	g	BL
223.489	2.0	2-back	0.0	1.0	0.922	z	BL
225.505	2.0	2-back	1.0	1.0	0.808	g	TL
227.521	2.0	2-back	1.0	0.0	1.18	z	BR
233.584	2.0	baseline	n/a	0.0	0.595	blackcross.bmp	n/a
235.633	2.0	baseline	1.0	1.0	0.467	redcross.bmp	n/a
237.682	2.0	baseline	n/a	1.0	n/a	blackcross.bmp	n/a
239.732	2.0	baseline	n/a	1.0	n/a	blackcross.bmp	n/a
241.781	2.0	baseline	n/a	1.0	n/a	blackcross.bmp	n/a
243.83	2.0	baseline	n/a	1.0	n/a	blackcross.bmp	n/a
245.879	2.0	baseline	1.0	1.0	0.556	redcross.bmp	n/a
247.928	2.0	baseline	n/a	1.0	n/a	blackcross.bmp	n/a
249.977	2.0	baseline	n/a	1.0	n/a	blackcross.bmp	n/a
252.026	2.0	baseline	n/a	1.0	n/a	blackcross.bmp	n/a
254.075	2.0	baseline	1.0	1.0	0.486	redcross.bmp	n/a
256.124	2.0	baseline	1.0	1.0	0.628	redcross.bmp	n/a
