onset	duration	trial_type	correct_response	accuracy	response_time	stimulus	position
4.025	1.8	no_response	n/a	1.0	n/a	c	TR
5.825	1.8	no_response	n/a	1.0	n/a	g	BL
7.624	2.0	2-back	1.0	0.0	n/a	c	BL
9.639	2.0	2-back	0.0	0.0	n/a	p	TR
11.655	2.0	2-back	0.0	1.0	0.687	v	TL
13.671	2.0	2-back	1.0	1.0	0.882	p	TL
15.687	2.0	2-back	0.0	0.0	n/a	s	BL
17.702	2.0	2-back	0.0	0.0	n/a	x	TR
19.718	2.0	2-back	1.0	0.0	0.915	s	TR
21.734	2.0	2-back	1.0	0.0	0.768	x	TL
23.75	2.0	2-back	0.0	0.0	0.96	n	BR
25.765	2.0	2-back	0.0	1.0	0.967	f	BL
27.781	2.0	2-back	1.0	1.0	1.154	n	TL
29.797	2.0	2-back	0.0	1.0	0.938	t	TL
31.812	2.0	2-back	0.0	1.0	0.8	l	TR
33.828	2.0	2-back	0.0	0.0	0.82	r	BR
35.844	2.0	2-back	1.0	0.0	0.663	l	TL
37.86	2.0	2-back	0.0	0.0	0.714	z	TL
39.875	2.0	2-back	0.0	1.0	0.879	v	BL
41.891	2.0	2-back	0.0	1.0	0.944	t	BR
43.907	2.0	2-back	0.0	0.0	n/a	g	TL
45.922	2.0	2-back	1.0	0.0	0.896	t	BL
47.938	2.0	2-back	0.0	0.0	0.634	f	BR
49.954	2.0	2-back	0.0	1.0	0.639	r	BR
51.97	2.0	2-back	1.0	0.0	0.879	f	TR
53.985	2.0	2-back	0.0	0.0	1.082	z	BL
56.001	2.0	2-back	0.0	1.0	0.745	c	BR
58.017	2.0	2-back	0.0	1.0	0.812	g	TR
60.033	2.0	2-back	1.0	0.0	0.438	c	BL
62.048	2.0	2-back	0.0	0.0	0.51	p	BR
64.064	2.0	2-back	0.0	0.0	0.357	v	BR
66.08	2.0	2-back	1.0	0.0	0.464	p	TR
68.095	2.0	2-back	0.0	1.0	0.991	s	TL
70.111	2.0	2-back	0.0	1.0	0.558	t	BR
72.127	2.0	2-back	1.0	0.0	0.918	s	TR
74.143	2.0	2-back	0.0	0.0	0.611	r	TL
76.158	2.0	2-back	0.0	1.0	0.4	z	BL
78.174	2.0	2-back	1.0	1.0	0.974	r	TR
80.19	2.0	2-back	1.0	0.0	n/a	z	BR
82.205	2.0	2-back	0.0	0.0	0.702	n	TL
84.221	2.0	2-back	0.0	1.0	0.383	g	TR
86.237	2.0	2-back	1.0	0.0	0.445	n	BL
88.253	2.0	2-back	0.0	0.0	0.557	x	BR
90.268	2.0	2-back	0.0	1.0	0.888	v	TR
92.284	2.0	2-back	1.0	0.0	0.943	x	BL
94.3	2.0	2-back	0.0	0.0	0.53	l	BL
96.315	2.0	2-back	0.0	0.0	n/a	f	TL
98.331	2.0	2-back	1.0	0.0	0.778	l	BR
104.395	2.0	baseline	n/a	1.0	n/a	blackcross.bmp	n/a
106.444	2.0	baseline	1.0	0.0	n/a	redcross.bmp	n/a
108.493	2.0	baseline	n/a	1.0	n/a	blackcross.bmp	n/a
110.542	2.0	baseline	1.0	1.0	0.498	redcross.bmp	n/a
112.591	2.0	baseline	n/a	1.0	n/a	blackcross.bmp	n/a
114.64	2.0	baseline	n/a	1.0	n/a	blackcross.bmp	n/a
116.689	2.0	baseline	n/a	1.0	n/a	blackcross.bmp	n/a
118.738	2.0	baseline	1.0	1.0	0.561	redcross.bmp	n/a
120.787	2.0	baseline	n/a	1.0	n/a	blackcross.bmp	n/a
122.836	2.0	baseline	1.0	1.0	0.472	redcross.bmp	n/a
124.885	2.0	baseline	n/a	1.0	n/a	blackcross.bmp	n/a
126.934	2.0	baseline	n/a	1.0	n/a	blackcross.bmp	n/a
132.982	1.8	no_response	n/a	0.0	1.723	v	TR
134.781	2.0	1-back	1.0	0.0	n/a	v	BL
136.796	2.0	1-back	0.0	1.0	1.043	p	TR
138.812	2.0	1-back	0.0	0.0	n/a	g	BL
140.828	2.0	1-back	1.0	0.0	1.137	g	TL
142.844	2.0	1-back	0.0	0.0	0.774	z	BR
144.859	2.0	1-back	0.0	1.0	0.768	l	TL
146.875	2.0	1-back	0.0	1.0	1.008	t	BL
148.891	2.0	1-back	1.0	1.0	0.79	t	TR
150.906	2.0	1-back	0.0	1.0	0.978	s	BR
152.922	2.0	1-back	0.0	1.0	0.979	l	TL
154.938	2.0	1-back	0.0	1.0	0.954	x	BR
156.954	2.0	1-back	1.0	0.0	1.139	x	TR
158.969	2.0	1-back	1.0	0.0	n/a	x	TL
160.985	2.0	1-back	0.0	1.0	0.609	s	TR
163.001	2.0	1-back	1.0	0.0	0.773	s	BL
165.016	2.0	1-back	0.0	0.0	n/a	n	TR
167.032	2.0	1-back	0.0	0.0	n/a	r	TL
169.048	2.0	1-back	0.0	0.0	n/a	s	TR
171.064	2.0	1-back	0.0	0.0	n/a	t	BL
173.079	2.0	1-back	1.0	0.0	n/a	t	TR
175.095	2.0	1-back	0.0	0.0	0.698	l	BR
177.111	2.0	1-back	0.0	1.0	0.148	r	BL
179.127	2.0	1-back	0.0	1.0	0.691	f	TL
181.142	2.0	1-back	1.0	0.0	0.945	f	BL
183.158	2.0	1-back	0.0	1.0	0.825	z	BR
185.174	2.0	1-back	1.0	1.0	1.107	z	BL
187.189	2.0	1-back	0.0	1.0	0.848	c	TL
189.205	2.0	1-back	1.0	0.0	0.929	c	TR
191.221	2.0	1-back	0.0	0.0	0.579	p	BR
193.237	2.0	1-back	1.0	0.0	n/a	p	BL
195.252	2.0	1-back	0.0	1.0	0.866	n	TL
197.268	2.0	1-back	1.0	0.0	0.911	n	TR
199.284	2.0	1-back	0.0	0.0	1.004	f	BL
201.299	2.0	1-back	1.0	0.0	0.45	f	BR
203.315	2.0	1-back	0.0	0.0	0.843	l	TL
205.331	2.0	1-back	0.0	1.0	0.308	r	BR
207.347	2.0	1-back	1.0	1.0	1.025	r	TL
209.362	2.0	1-back	0.0	1.0	0.603	z	BR
211.378	2.0	1-back	0.0	0.0	n/a	n	BL
213.394	2.0	1-back	0.0	0.0	n/a	c	TL
215.409	2.0	1-back	1.0	0.0	0.595	c	TR
217.425	2.0	1-back	0.0	1.0	1.111	v	BR
219.441	2.0	1-back	1.0	0.0	n/a	v	TL
221.457	2.0	1-back	0.0	1.0	0.796	x	TR
223.472	2.0	1-back	0.0	0.0	n/a	g	BR
225.488	2.0	1-back	0.0	0.0	0.474	p	BL
227.504	2.0	1-back	0.0	1.0	0.51	g	BR
233.567	2.0	baseline	n/a	1.0	n/a	blackcross.bmp	n/a
235.616	2.0	baseline	n/a	1.0	n/a	blackcross.bmp	n/a
237.665	2.0	baseline	1.0	1.0	0.389	redcross.bmp	n/a
239.714	2.0	baseline	1.0	0.0	n/a	redcross.bmp	n/a
241.764	2.0	baseline	n/a	1.0	n/a	blackcross.bmp	n/a
243.813	2.0	baseline	n/a	1.0	n/a	blackcross.bmp	n/a
245.862	2.0	baseline	n/a	1.0	n/a	blackcross.bmp	n/a
247.911	2.0	baseline	1.0	0.0	n/a	redcross.bmp	n/a
249.96	2.0	baseline	n/a	1.0	n/a	blackcross.bmp	n/a
252.009	2.0	baseline	n/a	1.0	n/a	blackcross.bmp	n/a
254.058	2.0	baseline	1.0	1.0	0.569	redcross.bmp	n/a
256.107	2.0	baseline	n/a	1.0	n/a	blackcross.bmp	n/a
