onset	duration	trial_type	correct_response	accuracy	response_time	stimulus	position
2.027	1.8	no_response	n/a	1.0	n/a	v	TR
3.826	2.0	1-back	0.0	1.0	0.547	p	TL
5.842	2.0	1-back	0.0	1.0	0.683	z	BL
7.858	2.0	1-back	1.0	1.0	0.426	c	BL
9.873	2.0	1-back	0.0	1.0	0.571	t	TR
11.889	2.0	1-back	0.0	1.0	0.533	l	TL
13.905	2.0	1-back	1.0	1.0	0.485	c	TL
15.921	2.0	1-back	0.0	1.0	0.542	v	BL
17.936	2.0	1-back	0.0	1.0	0.395	n	BR
19.952	2.0	1-back	1.0	1.0	0.389	l	BR
21.968	2.0	1-back	0.0	1.0	0.461	v	TL
23.983	2.0	1-back	0.0	1.0	0.332	c	BR
25.999	2.0	1-back	0.0	0.0	0.57	r	TR
28.015	2.0	1-back	1.0	1.0	0.757	t	TR
30.031	2.0	1-back	0.0	1.0	0.598	n	BL
32.046	2.0	1-back	1.0	1.0	0.747	s	BL
34.062	2.0	1-back	0.0	1.0	0.458	v	TR
36.078	2.0	1-back	0.0	1.0	0.73	p	TL
38.094	2.0	1-back	1.0	1.0	0.461	c	TL
40.109	2.0	1-back	0.0	1.0	0.64	g	TR
42.125	2.0	1-back	1.0	0.0	0.624	z	TR
44.141	2.0	1-back	0.0	1.0	0.607	x	BR
46.156	2.0	1-back	0.0	0.0	0.826	g	BL
48.172	2.0	1-back	0.0	1.0	0.82	l	TL
50.188	2.0	1-back	0.0	1.0	0.743	r	BL
52.204	2.0	1-back	1.0	1.0	0.747	x	BL
54.219	2.0	1-back	0.0	1.0	0.541	f	BR
56.235	2.0	1-back	0.0	1.0	0.603	z	TR
58.251	2.0	1-back	1.0	1.0	0.601	r	TR
60.267	2.0	1-back	0.0	1.0	0.555	f	BL
62.282	2.0	1-back	1.0	1.0	0.742	n	BL
64.298	2.0	1-back	0.0	1.0	0.475	x	TR
66.314	2.0	1-back	1.0	0.0	0.65	t	TR
68.329	2.0	1-back	0.0	1.0	0.704	p	BR
70.345	2.0	1-back	1.0	1.0	0.671	x	BR
72.361	2.0	1-back	0.0	1.0	0.619	t	TL
74.377	2.0	1-back	1.0	1.0	0.661	s	TL
76.392	2.0	1-back	0.0	1.0	0.691	f	BL
78.408	2.0	1-back	0.0	1.0	0.688	l	BR
80.424	2.0	1-back	1.0	0.0	0.79	g	BR
82.439	2.0	1-back	0.0	0.0	n/a	n	TL
84.455	2.0	1-back	0.0	1.0	0.677	s	TR
86.471	2.0	1-back	0.0	1.0	0.856	p	BR
88.487	2.0	1-back	0.0	1.0	0.592	r	TL
90.502	2.0	1-back	1.0	1.0	0.598	s	TL
92.518	2.0	1-back	0.0	1.0	0.554	g	BR
94.534	2.0	1-back	1.0	0.0	0.679	z	BR
96.55	2.0	1-back	0.0	1.0	0.761	f	BL
102.613	2.0	baseline	n/a	1.0	n/a	blackcross.bmp	n/a
104.662	2.0	baseline	1.0	1.0	0.397	redcross.bmp	n/a
106.711	2.0	baseline	n/a	1.0	n/a	blackcross.bmp	n/a
108.76	2.0	baseline	1.0	1.0	0.397	n/a	n/a
110.809	2.0	baseline	n/a	1.0	n/a	blackcross.bmp	n/a
112.858	2.0	baseline	n/a	1.0	n/a	blackcross.bmp	n/a
114.907	2.0	baseline	1.0	1.0	0.477	n/a	n/a
116.956	2.0	baseline	n/a	1.0	n/a	blackcross.bmp	n/a
119.005	2.0	baseline	n/a	1.0	n/a	blackcross.bmp	n/a
121.055	2.0	baseline	n/a	1.0	n/a	blackcross.bmp	n/a
123.104	2.0	baseline	1.0	1.0	0.56	n/a	n/a
125.153	2.0	baseline	n/a	1.0	n/a	blackcross.bmp	n/a
131.2	1.8	no_response	n/a	1.0	n/a	c	BL
132.999	1.8	no_response	n/a	1.0	n/a	p	BR
134.798	2.0	2-back	1.0	0.0	n/a	n	BL
136.814	2.0	2-back	0.0	0.0	n/a	x	TR
138.83	2.0	2-back	0.0	0.0	n/a	g	TL
140.846	2.0	2-back	1.0	0.0	0.546	p	TR
142.861	2.0	2-back	1.0	1.0	0.983	c	TL
144.877	2.0	2-back	0.0	1.0	0.572	x	BL
146.893	2.0	2-back	1.0	1.0	0.612	l	TL
148.908	2.0	2-back	0.0	1.0	0.505	v	TR
150.924	2.0	2-back	0.0	1.0	0.596	g	TR
152.94	2.0	2-back	0.0	1.0	0.914	t	BR
154.956	2.0	2-back	0.0	1.0	0.674	z	BL
156.971	2.0	2-back	1.0	1.0	0.714	n	BR
158.987	2.0	2-back	0.0	1.0	0.54	f	TL
161.003	2.0	2-back	0.0	1.0	0.637	n	TR
163.019	2.0	2-back	1.0	0.0	0.54	t	TL
165.034	2.0	2-back	0.0	1.0	0.518	v	BL
167.05	2.0	2-back	1.0	1.0	0.91	l	TL
169.066	2.0	2-back	0.0	1.0	0.983	r	TL
171.081	2.0	2-back	0.0	1.0	0.852	s	BR
173.097	2.0	2-back	0.0	0.0	0.679	v	BL
175.113	2.0	2-back	1.0	0.0	0.448	n	BR
177.129	2.0	2-back	0.0	1.0	0.781	p	TL
179.144	2.0	2-back	0.0	1.0	0.769	s	TR
181.16	2.0	2-back	0.0	1.0	1.079	g	BR
183.176	2.0	2-back	0.0	1.0	0.642	p	BL
185.192	2.0	2-back	1.0	0.0	0.609	f	BR
187.207	2.0	2-back	0.0	1.0	0.608	r	TR
189.223	2.0	2-back	0.0	1.0	0.789	s	BL
191.239	2.0	2-back	1.0	1.0	0.832	z	TR
193.254	2.0	2-back	1.0	1.0	1.155	x	BL
195.27	2.0	2-back	0.0	1.0	0.684	c	TL
197.286	2.0	2-back	0.0	1.0	0.85	r	TR
199.302	2.0	2-back	0.0	1.0	0.864	v	BR
201.317	2.0	2-back	0.0	1.0	0.901	l	TL
203.333	2.0	2-back	1.0	1.0	0.903	c	BR
205.349	2.0	2-back	0.0	1.0	0.626	s	TR
207.364	2.0	2-back	1.0	1.0	0.448	t	BR
209.38	2.0	2-back	0.0	1.0	0.608	r	BL
211.396	2.0	2-back	0.0	1.0	0.629	f	TL
213.412	2.0	2-back	1.0	0.0	0.9	z	BL
215.427	2.0	2-back	0.0	1.0	0.505	l	TR
217.443	2.0	2-back	0.0	1.0	0.646	x	TL
219.459	2.0	2-back	1.0	1.0	0.389	f	TR
221.475	2.0	2-back	0.0	1.0	0.554	g	BR
223.49	2.0	2-back	0.0	1.0	0.539	t	BL
225.506	2.0	2-back	1.0	1.0	0.643	z	BR
231.57	2.0	baseline	n/a	1.0	n/a	blackcross.bmp	n/a
233.619	2.0	baseline	1.0	1.0	0.362	redcross.bmp	n/a
235.668	2.0	baseline	n/a	1.0	n/a	blackcross.bmp	n/a
237.717	2.0	baseline	1.0	1.0	0.338	redcross.bmp	n/a
239.766	2.0	baseline	n/a	1.0	n/a	blackcross.bmp	n/a
241.815	2.0	baseline	n/a	1.0	n/a	blackcross.bmp	n/a
243.864	2.0	baseline	n/a	1.0	n/a	blackcross.bmp	n/a
245.913	2.0	baseline	n/a	1.0	n/a	blackcross.bmp	n/a
247.962	2.0	baseline	1.0	1.0	0.538	redcross.bmp	n/a
250.011	2.0	baseline	n/a	1.0	n/a	blackcross.bmp	n/a
252.06	2.0	baseline	n/a	1.0	n/a	blackcross.bmp	n/a
254.109	2.0	baseline	1.0	1.0	0.648	redcross.bmp	n/a
