onset	duration	trial_type	correct_response	accuracy	response_time	stimulus	position
4.026	1.8	no_response	n/a	1.0	n/a	l	TR
5.825	2.0	1-back	1.0	1.0	0.809	l	BL
7.841	2.0	1-back	0.0	1.0	0.825	s	TR
9.857	2.0	1-back	0.0	1.0	0.808	z	BL
11.872	2.0	1-back	0.0	1.0	0.905	t	TL
13.888	2.0	1-back	0.0	1.0	0.668	x	BR
15.904	2.0	1-back	1.0	1.0	0.666	x	TL
17.92	2.0	1-back	0.0	1.0	0.52	n	BL
19.935	2.0	1-back	0.0	1.0	0.762	s	TR
21.951	2.0	1-back	0.0	1.0	0.784	l	BR
23.967	2.0	1-back	1.0	1.0	0.536	l	TL
25.982	2.0	1-back	0.0	1.0	0.59	g	BR
27.998	2.0	1-back	1.0	1.0	0.606	g	TR
30.014	2.0	1-back	0.0	1.0	0.563	r	TL
32.03	2.0	1-back	1.0	1.0	0.834	r	TR
34.045	2.0	1-back	0.0	1.0	0.585	x	BL
36.061	2.0	1-back	0.0	1.0	0.674	p	TR
38.077	2.0	1-back	1.0	1.0	0.711	p	TL
40.092	2.0	1-back	0.0	1.0	0.56	c	TR
42.108	2.0	1-back	0.0	1.0	0.638	r	BL
44.124	2.0	1-back	0.0	0.0	0.486	f	TR
46.14	2.0	1-back	1.0	0.0	0.442	f	BR
48.155	2.0	1-back	1.0	1.0	0.59	f	BL
50.171	2.0	1-back	0.0	1.0	1.001	c	TL
52.187	2.0	1-back	0.0	1.0	0.835	z	BL
54.203	2.0	1-back	1.0	1.0	0.958	z	BR
56.218	2.0	1-back	0.0	1.0	0.498	v	BL
58.234	2.0	1-back	0.0	0.0	0.47	p	TL
60.25	2.0	1-back	1.0	1.0	0.489	p	TR
62.265	2.0	1-back	0.0	1.0	0.58	n	BR
64.281	2.0	1-back	0.0	0.0	0.537	s	BL
66.297	2.0	1-back	1.0	1.0	0.632	s	TL
68.313	2.0	1-back	0.0	1.0	0.729	z	TR
70.328	2.0	1-back	0.0	1.0	0.509	v	BL
72.344	2.0	1-back	0.0	1.0	0.866	t	BR
74.36	2.0	1-back	1.0	1.0	0.684	t	TL
76.375	2.0	1-back	1.0	1.0	0.812	t	BR
78.391	2.0	1-back	0.0	1.0	0.747	g	TL
80.407	2.0	1-back	0.0	1.0	0.898	x	BR
82.423	2.0	1-back	0.0	1.0	1.188	g	BL
84.438	2.0	1-back	0.0	1.0	0.71	c	TL
86.454	2.0	1-back	1.0	1.0	0.825	c	TR
88.47	2.0	1-back	0.0	1.0	0.615	v	BR
90.485	2.0	1-back	1.0	0.0	n/a	v	TL
92.501	2.0	1-back	0.0	1.0	0.973	f	TR
94.517	2.0	1-back	0.0	1.0	1.03	r	BR
96.533	2.0	1-back	0.0	0.0	n/a	n	BL
98.548	2.0	1-back	1.0	1.0	0.869	n	BR
104.612	2.0	baseline	n/a	1.0	n/a	blackcross.bmp	n/a
106.661	2.0	baseline	n/a	1.0	n/a	blackcross.bmp	n/a
108.71	2.0	baseline	1.0	0.0	n/a	redcross.bmp	n/a
110.759	2.0	baseline	n/a	1.0	n/a	blackcross.bmp	n/a
112.808	2.0	baseline	n/a	1.0	n/a	blackcross.bmp	n/a
114.857	2.0	baseline	1.0	1.0	0.509	redcross.bmp	n/a
116.906	2.0	baseline	n/a	1.0	n/a	blackcross.bmp	n/a
118.955	2.0	baseline	n/a	1.0	n/a	blackcross.bmp	n/a
121.004	2.0	baseline	n/a	1.0	n/a	blackcross.bmp	n/a
123.053	2.0	baseline	1.0	1.0	0.833	redcross.bmp	n/a
125.102	2.0	baseline	n/a	1.0	n/a	blackcross.bmp	n/a
127.151	2.0	baseline	1.0	1.0	0.574	redcross.bmp	n/a
133.199	1.8	no_response	n/a	1.0	n/a	z	TR
134.998	1.8	no_response	n/a	1.0	n/a	n	BL
136.797	2.0	2-back	0.0	1.0	0.679	g	BL
138.813	2.0	2-back	0.0	1.0	1.042	p	TR
140.828	2.0	2-back	1.0	1.0	0.715	g	TL
142.844	2.0	2-back	0.0	1.0	0.578	s	TL
144.86	2.0	2-back	0.0	1.0	0.987	f	BL
146.876	2.0	2-back	1.0	1.0	0.858	s	TR
148.891	2.0	2-back	1.0	1.0	0.9	f	TR
150.907	2.0	2-back	0.0	1.0	0.614	c	TL
152.923	2.0	2-back	0.0	1.0	0.747	x	BR
154.939	2.0	2-back	1.0	1.0	0.596	c	BL
156.954	2.0	2-back	0.0	1.0	0.53	l	TL
158.97	2.0	2-back	0.0	1.0	0.74	v	TL
160.986	2.0	2-back	0.0	0.0	1.024	p	TR
163.001	2.0	2-back	1.0	0.0	0.633	v	BR
165.017	2.0	2-back	0.0	1.0	0.907	c	TL
167.033	2.0	2-back	0.0	1.0	0.878	s	TL
169.049	2.0	2-back	0.0	0.0	1.032	t	BL
171.064	2.0	2-back	0.0	1.0	0.579	x	BR
173.08	2.0	2-back	1.0	1.0	1.006	t	TL
175.096	2.0	2-back	0.0	1.0	0.637	r	BL
177.111	2.0	2-back	0.0	1.0	1.003	n	BR
179.127	2.0	2-back	1.0	1.0	1.177	r	BR
181.143	2.0	2-back	0.0	1.0	0.751	l	TR
183.159	2.0	2-back	0.0	1.0	0.74	v	BL
185.174	2.0	2-back	1.0	1.0	0.848	l	BR
187.19	2.0	2-back	1.0	0.0	0.536	v	TR
189.206	2.0	2-back	0.0	0.0	0.84	s	BL
191.222	2.0	2-back	0.0	1.0	0.504	t	BR
193.237	2.0	2-back	0.0	0.0	0.93	c	BR
195.253	2.0	2-back	1.0	0.0	0.467	t	TR
197.269	2.0	2-back	0.0	0.0	0.657	n	TL
199.284	2.0	2-back	0.0	1.0	0.564	l	BR
201.3	2.0	2-back	1.0	0.0	0.56	n	TR
203.316	2.0	2-back	0.0	1.0	0.839	p	TL
205.332	2.0	2-back	0.0	1.0	1.008	x	BL
207.347	2.0	2-back	1.0	0.0	0.884	p	TR
209.363	2.0	2-back	0.0	1.0	1.121	f	BR
211.379	2.0	2-back	0.0	1.0	0.991	z	TL
213.394	2.0	2-back	1.0	0.0	0.868	f	TR
215.41	2.0	2-back	0.0	0.0	0.823	r	BL
217.426	2.0	2-back	0.0	1.0	0.825	x	BR
219.442	2.0	2-back	1.0	1.0	1.084	r	TR
221.457	2.0	2-back	0.0	0.0	0.995	g	BL
223.473	2.0	2-back	0.0	1.0	0.599	z	BL
225.489	2.0	2-back	1.0	1.0	0.727	g	TL
227.504	2.0	2-back	1.0	0.0	0.701	z	BR
233.568	2.0	baseline	n/a	1.0	n/a	blackcross.bmp	n/a
235.617	2.0	baseline	1.0	1.0	0.599	redcross.bmp	n/a
237.666	2.0	baseline	n/a	1.0	n/a	blackcross.bmp	n/a
239.715	2.0	baseline	n/a	1.0	n/a	blackcross.bmp	n/a
241.764	2.0	baseline	n/a	1.0	n/a	blackcross.bmp	n/a
243.813	2.0	baseline	n/a	1.0	n/a	blackcross.bmp	n/a
245.862	2.0	baseline	1.0	1.0	0.48	redcross.bmp	n/a
247.911	2.0	baseline	n/a	1.0	n/a	blackcross.bmp	n/a
249.96	2.0	baseline	n/a	1.0	n/a	blackcross.bmp	n/a
252.009	2.0	baseline	n/a	1.0	n/a	blackcross.bmp	n/a
254.058	2.0	baseline	1.0	1.0	0.518	redcross.bmp	n/a
256.107	2.0	baseline	1.0	1.0	1.062	redcross.bmp	n/a
