onset	duration	trial_type	correct_response	accuracy	response_time	stimulus	position
4.026	1.8	no_response	n/a	1.0	n/a	c	TR
5.825	2.0	1-back	0.0	1.0	0.754	g	BL
7.824	2.0	1-back	0.0	1.0	0.739	p	TR
9.823	2.0	1-back	1.0	1.0	0.603	p	BL
11.822	2.0	1-back	0.0	1.0	0.902	t	TL
13.822	2.0	1-back	0.0	1.0	1.077	v	BR
15.821	2.0	1-back	1.0	1.0	0.797	v	TL
17.82	2.0	1-back	0.0	1.0	0.675	s	BL
19.819	2.0	1-back	1.0	1.0	0.482	s	TR
21.818	2.0	1-back	0.0	1.0	0.763	x	BR
23.817	2.0	1-back	0.0	1.0	0.782	n	TL
25.816	2.0	1-back	1.0	1.0	0.653	n	BR
27.815	2.0	1-back	0.0	1.0	0.605	f	TR
29.814	2.0	1-back	1.0	1.0	0.571	f	TL
31.813	2.0	1-back	0.0	1.0	0.453	l	TR
33.812	2.0	1-back	0.0	1.0	0.96	r	BL
35.811	2.0	1-back	0.0	0.0	n/a	z	TR
37.81	2.0	1-back	1.0	1.0	0.788	z	TL
39.809	2.0	1-back	0.0	1.0	0.515	c	TR
41.808	2.0	1-back	1.0	1.0	0.691	c	BL
43.807	2.0	1-back	0.0	1.0	0.817	g	TR
45.807	2.0	1-back	1.0	1.0	0.711	g	BR
47.806	2.0	1-back	0.0	1.0	0.798	x	BL
49.805	2.0	1-back	0.0	0.0	n/a	t	TL
51.804	2.0	1-back	1.0	1.0	0.764	t	BL
53.803	2.0	1-back	0.0	1.0	0.658	r	BR
55.802	2.0	1-back	0.0	1.0	0.894	p	BL
57.801	2.0	1-back	0.0	1.0	0.884	v	TL
59.8	2.0	1-back	0.0	1.0	0.819	s	TR
61.799	2.0	1-back	1.0	1.0	0.816	s	BR
63.798	2.0	1-back	0.0	1.0	0.776	x	BL
65.797	2.0	1-back	1.0	1.0	0.768	x	TL
67.796	2.0	1-back	0.0	1.0	0.92	l	TR
69.795	2.0	1-back	1.0	1.0	0.787	l	BL
71.794	2.0	1-back	0.0	1.0	0.838	n	BR
73.793	2.0	1-back	1.0	1.0	0.804	n	TL
75.792	2.0	1-back	0.0	1.0	0.744	z	BR
77.792	2.0	1-back	1.0	1.0	0.845	z	TL
79.791	2.0	1-back	0.0	1.0	0.847	c	BR
81.79	2.0	1-back	0.0	0.0	0.836	g	BL
83.789	2.0	1-back	0.0	1.0	0.831	p	TL
85.788	2.0	1-back	0.0	1.0	0.591	t	TR
87.787	2.0	1-back	0.0	0.0	0.986	v	BR
89.786	2.0	1-back	0.0	0.0	n/a	f	TL
91.785	2.0	1-back	1.0	1.0	0.743	f	TR
93.784	2.0	1-back	0.0	1.0	0.968	l	BR
95.783	2.0	1-back	0.0	1.0	0.798	r	BL
97.782	2.0	1-back	1.0	1.0	0.73	r	BR
103.829	2.0	baseline	1.0	1.0	0.995	redcross.bmp	n/a
105.878	2.0	baseline	n/a	1.0	n/a	blackcross.bmp	n/a
107.927	2.0	baseline	1.0	1.0	0.365	redcross.bmp	n/a
109.976	2.0	baseline	n/a	1.0	n/a	blackcross.bmp	n/a
112.025	2.0	baseline	n/a	1.0	n/a	blackcross.bmp	n/a
114.074	2.0	baseline	1.0	1.0	0.462	redcross.bmp	n/a
116.123	2.0	baseline	n/a	1.0	n/a	blackcross.bmp	n/a
118.172	2.0	baseline	1.0	1.0	0.453	redcross.bmp	n/a
120.221	2.0	baseline	n/a	1.0	n/a	blackcross.bmp	n/a
122.27	2.0	baseline	n/a	1.0	n/a	blackcross.bmp	n/a
124.319	2.0	baseline	n/a	1.0	n/a	blackcross.bmp	n/a
126.368	2.0	baseline	n/a	1.0	n/a	blackcross.bmp	n/a
132.416	1.8	no_response	n/a	1.0	n/a	r	TR
134.215	1.8	no_response	n/a	1.0	n/a	p	BL
136.014	2.0	2-back	0.0	0.0	n/a	s	BL
138.013	2.0	2-back	1.0	0.0	0.294	p	TR
140.012	2.0	2-back	0.0	1.0	0.756	c	TL
142.011	2.0	2-back	0.0	0.0	0.742	g	TL
144.01	2.0	2-back	1.0	0.0	0.455	c	BL
146.01	2.0	2-back	0.0	0.0	0.48	f	TR
148.009	2.0	2-back	0.0	1.0	0.541	x	TR
150.008	2.0	2-back	0.0	1.0	1.048	z	TL
152.007	2.0	2-back	1.0	1.0	0.926	x	BR
154.006	2.0	2-back	0.0	1.0	0.755	g	BL
156.005	2.0	2-back	0.0	1.0	0.685	v	TL
158.004	2.0	2-back	1.0	1.0	0.601	g	TL
160.003	2.0	2-back	1.0	0.0	n/a	v	TR
162.002	2.0	2-back	0.0	1.0	0.818	z	BR
164.001	2.0	2-back	0.0	1.0	0.71	n	TL
166.0	2.0	2-back	1.0	0.0	1.166	z	TL
167.999	2.0	2-back	0.0	0.0	0.678	s	BL
169.998	2.0	2-back	1.0	1.0	0.859	z	BR
171.997	2.0	2-back	0.0	1.0	0.899	t	TL
173.996	2.0	2-back	0.0	0.0	n/a	f	BL
175.995	2.0	2-back	1.0	1.0	0.826	t	BR
177.994	2.0	2-back	0.0	1.0	0.821	r	BR
179.994	2.0	2-back	0.0	1.0	0.772	c	TR
181.993	2.0	2-back	1.0	1.0	0.484	r	BL
183.992	2.0	2-back	0.0	1.0	0.802	f	BR
185.991	2.0	2-back	0.0	0.0	n/a	t	TR
187.99	2.0	2-back	1.0	1.0	0.62	f	BL
189.989	2.0	2-back	0.0	0.0	n/a	c	BR
191.988	2.0	2-back	0.0	1.0	0.585	l	BR
193.987	2.0	2-back	0.0	1.0	0.623	n	TR
195.986	2.0	2-back	1.0	1.0	1.195	l	TL
197.985	2.0	2-back	0.0	1.0	0.791	s	BR
199.984	2.0	2-back	0.0	0.0	n/a	g	TR
201.983	2.0	2-back	1.0	1.0	0.715	s	TL
203.982	2.0	2-back	0.0	0.0	0.69	l	BL
205.981	2.0	2-back	0.0	0.0	0.868	r	TR
207.98	2.0	2-back	0.0	1.0	0.485	x	BR
209.979	2.0	2-back	0.0	1.0	1.011	t	TL
211.979	2.0	2-back	1.0	0.0	0.453	x	TR
213.978	2.0	2-back	0.0	0.0	0.643	n	BL
215.977	2.0	2-back	0.0	1.0	0.543	p	BR
217.976	2.0	2-back	1.0	1.0	1.098	n	TR
219.975	2.0	2-back	1.0	1.0	0.928	p	BL
221.974	2.0	2-back	0.0	1.0	0.733	v	BL
223.973	2.0	2-back	0.0	0.0	0.863	l	TL
225.972	2.0	2-back	1.0	0.0	0.777	v	BR
232.019	2.0	baseline	n/a	1.0	n/a	blackcross.bmp	n/a
234.068	2.0	baseline	1.0	1.0	1.104	n/a	n/a
236.117	2.0	baseline	n/a	1.0	n/a	blackcross.bmp	n/a
238.166	2.0	baseline	n/a	1.0	n/a	blackcross.bmp	n/a
240.215	2.0	baseline	n/a	1.0	n/a	blackcross.bmp	n/a
242.264	2.0	baseline	1.0	1.0	0.685	n/a	n/a
244.313	2.0	baseline	n/a	1.0	n/a	blackcross.bmp	n/a
246.362	2.0	baseline	n/a	1.0	n/a	blackcross.bmp	n/a
248.411	2.0	baseline	1.0	1.0	0.39	n/a	n/a
250.46	2.0	baseline	1.0	1.0	0.48	n/a	n/a
252.509	2.0	baseline	n/a	1.0	n/a	blackcross.bmp	n/a
254.558	2.0	baseline	n/a	1.0	n/a	blackcross.bmp	n/a
