onset	duration	trial_type	correct_response	accuracy	response_time	stimulus	position
4.026	1.8	no_response	n/a	0.0	0.96	c	BL
5.825	1.8	no_response	n/a	0.0	1.159	l	TR
7.624	2.0	2-back	1.0	1.0	0.992	v	BL
9.623	2.0	2-back	1.0	1.0	0.701	p	TR
11.622	2.0	2-back	0.0	1.0	0.629	r	TL
13.621	2.0	2-back	0.0	1.0	0.667	t	BR
15.62	2.0	2-back	1.0	1.0	0.765	n	TL
17.619	2.0	2-back	0.0	1.0	0.747	s	TR
19.618	2.0	2-back	0.0	1.0	0.702	f	BL
21.617	2.0	2-back	1.0	1.0	0.659	x	TR
23.616	2.0	2-back	0.0	1.0	0.672	v	BR
25.615	2.0	2-back	0.0	1.0	0.937	p	TL
27.614	2.0	2-back	1.0	1.0	0.629	f	BR
29.614	2.0	2-back	1.0	1.0	0.619	n	TL
31.613	2.0	2-back	0.0	1.0	0.755	x	TR
33.612	2.0	2-back	1.0	1.0	0.621	t	TL
35.611	2.0	2-back	0.0	1.0	0.703	s	BL
37.61	2.0	2-back	0.0	1.0	0.896	l	TR
39.609	2.0	2-back	1.0	1.0	0.621	f	BL
41.608	2.0	2-back	1.0	0.0	0.563	c	TR
43.607	2.0	2-back	0.0	1.0	0.666	r	TL
45.606	2.0	2-back	1.0	1.0	0.678	g	TR
47.605	2.0	2-back	0.0	1.0	0.582	s	BL
49.604	2.0	2-back	0.0	1.0	0.76	r	BR
51.603	2.0	2-back	1.0	1.0	0.743	v	BL
53.602	2.0	2-back	0.0	0.0	0.671	p	BL
55.601	2.0	2-back	0.0	1.0	0.516	t	TL
57.6	2.0	2-back	1.0	0.0	0.746	x	BL
59.599	2.0	2-back	0.0	1.0	0.888	z	BR
61.599	2.0	2-back	0.0	1.0	0.905	t	TR
63.598	2.0	2-back	0.0	1.0	1.019	g	TL
65.597	2.0	2-back	1.0	0.0	1.006	c	TR
67.596	2.0	2-back	0.0	1.0	0.956	p	BL
69.595	2.0	2-back	0.0	1.0	1.112	s	BR
71.594	2.0	2-back	0.0	0.0	n/a	v	TL
73.593	2.0	2-back	1.0	1.0	0.857	n	BR
75.592	2.0	2-back	0.0	1.0	1.007	c	BL
77.591	2.0	2-back	0.0	0.0	1.006	l	TL
79.59	2.0	2-back	0.0	1.0	0.968	x	BR
81.589	2.0	2-back	1.0	1.0	0.945	z	TL
83.588	2.0	2-back	0.0	1.0	1.001	g	TR
85.587	2.0	2-back	0.0	1.0	1.011	f	BR
87.586	2.0	2-back	0.0	1.0	1.103	z	TL
89.585	2.0	2-back	1.0	0.0	1.051	l	BR
91.584	2.0	2-back	0.0	1.0	1.132	r	TR
93.583	2.0	2-back	1.0	1.0	0.782	z	BR
95.583	2.0	2-back	0.0	1.0	0.759	n	BL
97.582	2.0	2-back	1.0	0.0	0.797	g	BR
103.629	2.0	baseline	n/a	1.0	n/a	blackcross.bmp	n/a
105.678	2.0	baseline	n/a	1.0	n/a	blackcross.bmp	n/a
107.727	2.0	baseline	n/a	1.0	n/a	blackcross.bmp	n/a
109.776	2.0	baseline	1.0	1.0	0.532	redcross.bmp	n/a
111.825	2.0	baseline	n/a	1.0	n/a	blackcross.bmp	n/a
113.874	2.0	baseline	1.0	1.0	0.494	redcross.bmp	n/a
115.923	2.0	baseline	n/a	1.0	n/a	blackcross.bmp	n/a
117.972	2.0	baseline	n/a	1.0	n/a	blackcross.bmp	n/a
120.021	2.0	baseline	1.0	1.0	0.368	redcross.bmp	n/a
122.07	2.0	baseline	n/a	1.0	n/a	blackcross.bmp	n/a
124.119	2.0	baseline	n/a	1.0	n/a	blackcross.bmp	n/a
126.168	2.0	baseline	1.0	1.0	0.437	redcross.bmp	n/a
132.215	1.8	no_response	n/a	1.0	n/a	p	TR
134.015	2.0	1-back	0.0	1.0	0.75	f	BL
136.014	2.0	1-back	1.0	0.0	0.908	n	BL
138.013	2.0	1-back	0.0	1.0	0.87	x	TR
140.012	2.0	1-back	0.0	1.0	0.831	c	TL
142.011	2.0	1-back	1.0	1.0	0.712	p	TL
144.01	2.0	1-back	0.0	1.0	0.552	n	BL
146.009	2.0	1-back	0.0	1.0	0.656	c	TR
148.008	2.0	1-back	1.0	1.0	0.577	g	TR
150.007	2.0	1-back	0.0	1.0	0.646	n	TL
152.006	2.0	1-back	0.0	1.0	0.598	s	BR
154.005	2.0	1-back	0.0	1.0	0.78	x	BL
156.004	2.0	1-back	0.0	1.0	0.676	t	TL
158.003	2.0	1-back	1.0	1.0	0.617	g	TL
160.002	2.0	1-back	0.0	1.0	0.603	p	BR
162.001	2.0	1-back	0.0	1.0	0.841	c	TL
164.0	2.0	1-back	1.0	1.0	0.774	r	TL
166.0	2.0	1-back	0.0	1.0	0.613	t	BL
167.999	2.0	1-back	1.0	0.0	0.923	v	BL
169.998	2.0	1-back	0.0	1.0	0.676	g	BR
171.997	2.0	1-back	0.0	1.0	1.06	p	TL
173.996	2.0	1-back	0.0	0.0	0.9	x	BR
175.995	2.0	1-back	1.0	1.0	0.964	z	BR
177.994	2.0	1-back	0.0	1.0	0.787	l	TR
179.993	2.0	1-back	1.0	1.0	0.506	v	TR
181.992	2.0	1-back	0.0	1.0	0.407	n	BR
183.991	2.0	1-back	0.0	1.0	0.588	r	BL
185.99	2.0	1-back	1.0	1.0	0.757	s	BL
187.989	2.0	1-back	0.0	1.0	0.531	z	TR
189.988	2.0	1-back	0.0	1.0	0.738	l	TL
191.987	2.0	1-back	0.0	1.0	0.738	g	BR
193.986	2.0	1-back	1.0	1.0	0.605	f	BR
195.985	2.0	1-back	0.0	1.0	0.548	t	TR
197.984	2.0	1-back	0.0	1.0	0.705	z	TL
199.984	2.0	1-back	1.0	1.0	0.707	l	TL
201.983	2.0	1-back	0.0	1.0	0.537	f	BL
203.982	2.0	1-back	0.0	1.0	0.736	t	TR
205.981	2.0	1-back	1.0	0.0	0.751	r	TR
207.98	2.0	1-back	0.0	1.0	0.752	l	BR
209.979	2.0	1-back	1.0	1.0	0.585	z	BR
211.978	2.0	1-back	0.0	1.0	0.77	r	TR
213.977	2.0	1-back	1.0	1.0	0.449	v	TR
215.976	2.0	1-back	0.0	1.0	0.625	s	BL
217.975	2.0	1-back	1.0	1.0	0.496	f	BL
219.974	2.0	1-back	0.0	1.0	0.62	v	TL
221.973	2.0	1-back	0.0	1.0	0.711	x	BR
223.972	2.0	1-back	1.0	1.0	0.5	c	BR
225.971	2.0	1-back	0.0	1.0	0.594	s	BL
232.018	2.0	baseline	n/a	1.0	n/a	blackcross.bmp	n/a
234.067	2.0	baseline	n/a	1.0	n/a	blackcross.bmp	n/a
236.116	2.0	baseline	1.0	1.0	0.387	redcross.bmp	n/a
238.165	2.0	baseline	1.0	1.0	1.101	redcross.bmp	n/a
240.214	2.0	baseline	n/a	1.0	n/a	blackcross.bmp	n/a
242.263	2.0	baseline	n/a	1.0	n/a	blackcross.bmp	n/a
244.312	2.0	baseline	1.0	1.0	0.355	redcross.bmp	n/a
246.361	2.0	baseline	n/a	1.0	n/a	blackcross.bmp	n/a
248.411	2.0	baseline	n/a	1.0	n/a	blackcross.bmp	n/a
250.46	2.0	baseline	n/a	1.0	n/a	blackcross.bmp	n/a
252.509	2.0	baseline	1.0	1.0	0.444	redcross.bmp	n/a
254.558	2.0	baseline	n/a	1.0	n/a	blackcross.bmp	n/a
