onset	duration	trial_type	correct_response	accuracy	response_time	stimulus	position
4.025	1.8	no_response	n/a	0.0	0.691	v	TR
5.825	2.0	1-back	1.0	0.0	0.679	v	BL
7.84	2.0	1-back	0.0	1.0	0.542	p	TR
9.856	2.0	1-back	0.0	1.0	0.822	g	BL
11.872	2.0	1-back	1.0	1.0	0.537	g	TL
13.887	2.0	1-back	0.0	1.0	0.546	z	BR
15.903	2.0	1-back	0.0	1.0	0.6	l	TL
17.919	2.0	1-back	0.0	1.0	0.815	t	BL
19.935	2.0	1-back	1.0	1.0	0.561	t	TR
21.95	2.0	1-back	0.0	1.0	0.478	s	BR
23.966	2.0	1-back	0.0	1.0	0.52	l	TL
25.982	2.0	1-back	0.0	1.0	0.494	x	BR
27.998	2.0	1-back	1.0	0.0	0.485	x	TR
30.013	2.0	1-back	1.0	0.0	0.497	x	TL
32.029	2.0	1-back	0.0	1.0	0.676	s	TR
34.045	2.0	1-back	1.0	1.0	0.678	s	BL
36.06	2.0	1-back	0.0	1.0	0.497	n	TR
38.076	2.0	1-back	0.0	1.0	1.175	r	TL
40.092	2.0	1-back	0.0	1.0	0.578	s	TR
42.108	2.0	1-back	0.0	1.0	0.542	t	BL
44.123	2.0	1-back	1.0	1.0	0.675	t	TR
46.139	2.0	1-back	0.0	1.0	0.47	l	BR
48.155	2.0	1-back	0.0	1.0	0.561	r	BL
50.171	2.0	1-back	0.0	1.0	0.751	f	TL
52.186	2.0	1-back	1.0	1.0	0.749	f	BL
54.202	2.0	1-back	0.0	1.0	0.494	z	BR
56.218	2.0	1-back	1.0	0.0	0.631	z	BL
58.233	2.0	1-back	0.0	1.0	0.673	c	TL
60.249	2.0	1-back	1.0	0.0	0.656	c	TR
62.265	2.0	1-back	0.0	1.0	0.726	p	BR
64.281	2.0	1-back	1.0	1.0	0.733	p	BL
66.296	2.0	1-back	0.0	1.0	0.923	n	TL
68.312	2.0	1-back	1.0	1.0	0.597	n	TR
70.328	2.0	1-back	0.0	1.0	0.565	f	BL
72.343	2.0	1-back	1.0	1.0	0.749	f	BR
74.359	2.0	1-back	0.0	1.0	0.554	l	TL
76.375	2.0	1-back	0.0	1.0	0.544	r	BR
78.391	2.0	1-back	1.0	1.0	0.645	r	TL
80.406	2.0	1-back	0.0	1.0	0.56	z	BR
82.422	2.0	1-back	0.0	0.0	0.597	n	BL
84.438	2.0	1-back	0.0	1.0	0.516	c	TL
86.454	2.0	1-back	1.0	1.0	0.477	c	TR
88.469	2.0	1-back	0.0	1.0	0.484	v	BR
90.485	2.0	1-back	1.0	0.0	0.527	v	TL
92.501	2.0	1-back	0.0	1.0	0.646	x	TR
94.516	2.0	1-back	0.0	1.0	0.736	g	BR
96.532	2.0	1-back	0.0	1.0	0.813	p	BL
98.548	2.0	1-back	0.0	1.0	0.929	g	BR
104.611	2.0	baseline	n/a	1.0	n/a	blackcross.bmp	n/a
106.661	2.0	baseline	n/a	1.0	n/a	blackcross.bmp	n/a
108.71	2.0	baseline	1.0	1.0	0.337	redcross.bmp	n/a
110.759	2.0	baseline	1.0	1.0	0.412	redcross.bmp	n/a
112.808	2.0	baseline	n/a	1.0	n/a	blackcross.bmp	n/a
114.857	2.0	baseline	n/a	1.0	n/a	blackcross.bmp	n/a
116.906	2.0	baseline	n/a	1.0	n/a	blackcross.bmp	n/a
118.955	2.0	baseline	1.0	1.0	0.477	redcross.bmp	n/a
121.004	2.0	baseline	n/a	1.0	n/a	blackcross.bmp	n/a
123.053	2.0	baseline	n/a	1.0	n/a	blackcross.bmp	n/a
125.102	2.0	baseline	1.0	1.0	0.407	redcross.bmp	n/a
127.151	2.0	baseline	n/a	1.0	n/a	blackcross.bmp	n/a
133.198	1.8	no_response	n/a	1.0	n/a	c	TR
134.998	1.8	no_response	n/a	1.0	n/a	g	BL
136.797	2.0	2-back	1.0	1.0	0.738	c	BL
138.812	2.0	2-back	0.0	1.0	0.663	p	TR
140.828	2.0	2-back	0.0	1.0	0.906	v	TL
142.844	2.0	2-back	1.0	1.0	0.62	p	TL
144.86	2.0	2-back	0.0	1.0	0.564	s	BL
146.875	2.0	2-back	0.0	1.0	0.729	x	TR
148.891	2.0	2-back	1.0	1.0	0.666	s	TR
150.907	2.0	2-back	1.0	0.0	0.363	x	TL
152.923	2.0	2-back	0.0	1.0	0.685	n	BR
154.938	2.0	2-back	0.0	1.0	0.82	f	BL
156.954	2.0	2-back	1.0	1.0	0.722	n	TL
158.97	2.0	2-back	0.0	1.0	0.703	t	TL
160.985	2.0	2-back	0.0	1.0	0.506	l	TR
163.001	2.0	2-back	0.0	1.0	0.684	r	BR
165.017	2.0	2-back	1.0	1.0	0.893	l	TL
167.033	2.0	2-back	0.0	1.0	0.455	z	TL
169.048	2.0	2-back	0.0	1.0	0.57	v	BL
171.064	2.0	2-back	0.0	1.0	0.665	t	BR
173.08	2.0	2-back	0.0	1.0	0.859	g	TL
175.096	2.0	2-back	1.0	1.0	0.767	t	BL
177.111	2.0	2-back	0.0	1.0	0.638	f	BR
179.127	2.0	2-back	0.0	1.0	0.747	r	BR
181.143	2.0	2-back	1.0	1.0	0.958	f	TR
183.158	2.0	2-back	0.0	1.0	0.365	z	BL
185.174	2.0	2-back	0.0	1.0	0.607	c	BR
187.19	2.0	2-back	0.0	0.0	0.893	g	TR
189.206	2.0	2-back	1.0	0.0	0.459	c	BL
191.221	2.0	2-back	0.0	1.0	0.605	p	BR
193.237	2.0	2-back	0.0	1.0	0.598	v	BR
195.253	2.0	2-back	1.0	1.0	0.796	p	TR
197.269	2.0	2-back	0.0	1.0	0.524	s	TL
199.284	2.0	2-back	0.0	1.0	0.564	t	BR
201.3	2.0	2-back	1.0	0.0	0.797	s	TR
203.316	2.0	2-back	0.0	1.0	0.684	r	TL
205.331	2.0	2-back	0.0	1.0	0.779	z	BL
207.347	2.0	2-back	1.0	1.0	0.962	r	TR
209.363	2.0	2-back	1.0	0.0	1.002	z	BR
211.379	2.0	2-back	0.0	1.0	0.604	n	TL
213.394	2.0	2-back	0.0	1.0	0.708	g	TR
215.41	2.0	2-back	1.0	1.0	0.697	n	BL
217.426	2.0	2-back	0.0	1.0	0.55	x	BR
219.441	2.0	2-back	0.0	1.0	0.749	v	TR
221.457	2.0	2-back	1.0	1.0	0.78	x	BL
223.473	2.0	2-back	0.0	1.0	0.766	l	BL
225.489	2.0	2-back	0.0	1.0	0.694	f	TL
227.504	2.0	2-back	1.0	0.0	0.487	l	BR
233.568	2.0	baseline	n/a	1.0	n/a	blackcross.bmp	n/a
235.617	2.0	baseline	1.0	1.0	0.333	redcross.bmp	n/a
237.666	2.0	baseline	n/a	1.0	n/a	blackcross.bmp	n/a
239.715	2.0	baseline	1.0	1.0	0.404	redcross.bmp	n/a
241.764	2.0	baseline	n/a	1.0	n/a	blackcross.bmp	n/a
243.813	2.0	baseline	n/a	1.0	n/a	blackcross.bmp	n/a
245.862	2.0	baseline	n/a	1.0	n/a	blackcross.bmp	n/a
247.911	2.0	baseline	1.0	1.0	0.516	redcross.bmp	n/a
249.96	2.0	baseline	n/a	1.0	n/a	blackcross.bmp	n/a
252.009	2.0	baseline	1.0	1.0	0.535	redcross.bmp	n/a
254.058	2.0	baseline	n/a	1.0	n/a	blackcross.bmp	n/a
256.107	2.0	baseline	n/a	1.0	n/a	blackcross.bmp	n/a
