onset	duration	trial_type	correct_response	accuracy	response_time	stimulus	position
4.076	1.8	no_response	n/a	0.0	1.12	r	TL
5.875	2.0	1-back	1.0	1.0	0.973	r	TR
7.874	2.0	1-back	0.0	1.0	1.039	g	BR
9.873	2.0	1-back	1.0	1.0	0.725	g	TL
11.872	2.0	1-back	0.0	1.0	0.82	f	TR
13.871	2.0	1-back	0.0	1.0	1.037	t	BL
15.87	2.0	1-back	0.0	1.0	0.998	v	TL
17.869	2.0	1-back	0.0	1.0	0.898	p	TR
19.868	2.0	1-back	1.0	1.0	1.035	p	BL
21.867	2.0	1-back	0.0	1.0	0.849	z	BR
23.866	2.0	1-back	0.0	0.0	0.86	s	TR
25.866	2.0	1-back	1.0	0.0	0.93	s	BL
27.865	2.0	1-back	0.0	1.0	1.0	c	TL
29.864	2.0	1-back	1.0	0.0	0.598	c	BR
31.863	2.0	1-back	0.0	1.0	0.5	l	BR
33.862	2.0	1-back	0.0	1.0	0.65	n	BL
35.861	2.0	1-back	0.0	1.0	0.406	v	TL
37.86	2.0	1-back	1.0	0.0	0.375	v	TR
39.859	2.0	1-back	0.0	1.0	0.283	z	BR
41.858	2.0	1-back	0.0	0.0	0.291	s	TL
43.857	2.0	1-back	0.0	1.0	0.195	x	TR
45.856	2.0	1-back	1.0	0.0	0.238	x	BL
47.855	2.0	1-back	1.0	1.0	0.189	x	BR
49.854	2.0	1-back	0.0	1.0	0.32	v	TR
51.854	2.0	1-back	0.0	1.0	0.711	z	TL
53.853	2.0	1-back	1.0	1.0	1.006	z	BR
55.852	2.0	1-back	0.0	1.0	0.844	f	BL
57.851	2.0	1-back	0.0	1.0	0.953	r	TR
59.85	2.0	1-back	1.0	1.0	0.845	r	BL
61.849	2.0	1-back	0.0	1.0	0.635	n	TL
63.848	2.0	1-back	0.0	1.0	0.836	l	BL
65.847	2.0	1-back	1.0	1.0	0.947	l	BR
67.846	2.0	1-back	0.0	1.0	0.657	s	TL
69.845	2.0	1-back	0.0	0.0	0.506	g	TR
71.844	2.0	1-back	0.0	1.0	0.734	c	BL
73.843	2.0	1-back	1.0	1.0	0.773	c	TR
75.842	2.0	1-back	0.0	1.0	0.528	f	BR
77.841	2.0	1-back	1.0	1.0	0.537	f	TL
79.841	2.0	1-back	0.0	1.0	0.387	t	TR
81.84	2.0	1-back	0.0	1.0	0.423	x	BL
83.839	2.0	1-back	0.0	1.0	0.357	p	TL
85.838	2.0	1-back	1.0	0.0	0.324	p	BL
87.837	2.0	1-back	0.0	1.0	0.242	n	BR
89.836	2.0	1-back	1.0	1.0	0.204	n	TL
91.835	2.0	1-back	0.0	1.0	0.253	g	BR
93.834	2.0	1-back	0.0	0.0	0.376	l	BL
95.833	2.0	1-back	0.0	1.0	0.523	t	TR
97.832	2.0	1-back	1.0	0.0	0.388	t	BR
103.912	2.0	baseline	1.0	1.0	0.514	redcross.bmp	n/a
105.962	2.0	baseline	n/a	1.0	n/a	blackcross.bmp	n/a
108.011	2.0	baseline	1.0	1.0	0.484	redcross.bmp	n/a
110.06	2.0	baseline	n/a	1.0	n/a	blackcross.bmp	n/a
112.109	2.0	baseline	n/a	1.0	n/a	blackcross.bmp	n/a
114.158	2.0	baseline	n/a	1.0	n/a	blackcross.bmp	n/a
116.207	2.0	baseline	1.0	1.0	0.394	redcross.bmp	n/a
118.256	2.0	baseline	n/a	1.0	n/a	blackcross.bmp	n/a
120.305	2.0	baseline	n/a	1.0	n/a	blackcross.bmp	n/a
122.354	2.0	baseline	n/a	1.0	n/a	blackcross.bmp	n/a
124.403	2.0	baseline	1.0	1.0	0.784	redcross.bmp	n/a
126.452	2.0	baseline	n/a	1.0	n/a	blackcross.bmp	n/a
132.499	1.8	no_response	n/a	0.0	0.683	v	TR
134.299	1.8	no_response	n/a	0.0	1.261	r	BR
136.098	2.0	2-back	1.0	1.0	0.892	v	TL
138.097	2.0	2-back	0.0	1.0	0.719	g	TR
140.096	2.0	2-back	0.0	1.0	1.066	p	BL
142.095	2.0	2-back	1.0	1.0	0.887	g	BR
144.094	2.0	2-back	0.0	1.0	0.88	n	TL
146.093	2.0	2-back	0.0	1.0	0.826	x	TR
148.092	2.0	2-back	0.0	1.0	0.87	l	BR
150.091	2.0	2-back	0.0	1.0	0.838	c	TL
152.09	2.0	2-back	1.0	1.0	1.031	l	BL
154.089	2.0	2-back	1.0	0.0	0.684	c	TR
156.089	2.0	2-back	0.0	1.0	0.869	t	BR
158.088	2.0	2-back	0.0	1.0	1.113	n	TL
160.087	2.0	2-back	1.0	1.0	1.113	t	BR
162.086	2.0	2-back	0.0	1.0	0.834	f	TR
164.085	2.0	2-back	0.0	0.0	1.037	n	BR
166.084	2.0	2-back	0.0	1.0	0.914	x	TL
168.083	2.0	2-back	1.0	1.0	0.957	n	BL
170.082	2.0	2-back	0.0	1.0	0.884	r	TR
172.081	2.0	2-back	0.0	0.0	1.01	f	TL
174.08	2.0	2-back	1.0	0.0	0.853	r	BR
176.079	2.0	2-back	0.0	1.0	0.934	s	TR
178.078	2.0	2-back	0.0	0.0	0.826	v	BL
180.077	2.0	2-back	0.0	1.0	0.882	p	TL
182.077	2.0	2-back	1.0	1.0	0.865	v	TR
184.076	2.0	2-back	0.0	1.0	0.994	s	BL
186.075	2.0	2-back	0.0	1.0	1.066	p	BR
188.074	2.0	2-back	1.0	1.0	0.872	s	TR
190.073	2.0	2-back	0.0	1.0	0.944	g	BL
192.072	2.0	2-back	0.0	1.0	0.936	z	TL
194.071	2.0	2-back	0.0	1.0	0.962	r	BR
196.07	2.0	2-back	1.0	1.0	0.93	z	BL
198.069	2.0	2-back	0.0	1.0	0.845	c	BL
200.068	2.0	2-back	0.0	1.0	0.984	t	BR
202.067	2.0	2-back	1.0	1.0	1.067	c	TL
204.066	2.0	2-back	1.0	1.0	1.038	t	BL
206.065	2.0	2-back	0.0	1.0	0.975	s	BR
208.064	2.0	2-back	0.0	0.0	0.934	x	BL
210.064	2.0	2-back	0.0	1.0	0.949	f	TR
212.063	2.0	2-back	1.0	1.0	1.126	x	TR
214.062	2.0	2-back	1.0	0.0	0.945	f	BR
216.061	2.0	2-back	0.0	0.0	1.008	l	TL
218.06	2.0	2-back	0.0	1.0	0.96	p	BL
220.059	2.0	2-back	1.0	1.0	0.97	l	BL
222.058	2.0	2-back	0.0	1.0	0.95	z	TL
224.057	2.0	2-back	0.0	1.0	0.783	g	TL
226.056	2.0	2-back	1.0	0.0	0.31	z	TR
232.103	2.0	baseline	n/a	1.0	n/a	blackcross.bmp	n/a
234.152	2.0	baseline	1.0	1.0	0.4	redcross.bmp	n/a
236.201	2.0	baseline	n/a	1.0	n/a	blackcross.bmp	n/a
238.25	2.0	baseline	n/a	1.0	n/a	blackcross.bmp	n/a
240.299	2.0	baseline	n/a	1.0	n/a	blackcross.bmp	n/a
242.348	2.0	baseline	1.0	1.0	0.475	redcross.bmp	n/a
244.397	2.0	baseline	n/a	1.0	n/a	blackcross.bmp	n/a
246.446	2.0	baseline	n/a	1.0	n/a	blackcross.bmp	n/a
248.495	2.0	baseline	n/a	1.0	n/a	blackcross.bmp	n/a
250.544	2.0	baseline	n/a	1.0	n/a	blackcross.bmp	n/a
252.594	2.0	baseline	1.0	1.0	0.491	redcross.bmp	n/a
254.643	2.0	baseline	1.0	1.0	0.525	redcross.bmp	n/a
