onset	duration	trial_type	correct_response	accuracy	response_time	stimulus	position
4.026	1.8	no_response	n/a	1.0	n/a	c	TR
5.825	1.8	no_response	n/a	1.0	n/a	g	BL
7.624	2.0	2-back	1.0	1.0	0.601	c	BL
9.64	2.0	2-back	0.0	1.0	0.603	p	TR
11.656	2.0	2-back	0.0	1.0	0.518	v	TL
13.672	2.0	2-back	1.0	1.0	0.771	p	TL
15.687	2.0	2-back	0.0	1.0	0.611	s	BL
17.703	2.0	2-back	0.0	1.0	0.522	x	TR
19.719	2.0	2-back	1.0	1.0	0.49	s	TR
21.735	2.0	2-back	1.0	1.0	0.538	x	TL
23.75	2.0	2-back	0.0	1.0	0.519	n	BR
25.766	2.0	2-back	0.0	1.0	0.475	f	BL
27.782	2.0	2-back	1.0	1.0	0.517	n	TL
29.797	2.0	2-back	0.0	1.0	0.686	t	TL
31.813	2.0	2-back	0.0	1.0	0.643	l	TR
33.829	2.0	2-back	0.0	1.0	0.633	r	BR
35.845	2.0	2-back	1.0	1.0	0.553	l	TL
37.86	2.0	2-back	0.0	1.0	0.705	z	TL
39.876	2.0	2-back	0.0	1.0	0.709	v	BL
41.892	2.0	2-back	0.0	0.0	0.828	t	BR
43.908	2.0	2-back	0.0	1.0	0.562	g	TL
45.923	2.0	2-back	1.0	1.0	0.785	t	BL
47.939	2.0	2-back	0.0	1.0	0.767	f	BR
49.955	2.0	2-back	0.0	1.0	0.802	r	BR
51.971	2.0	2-back	1.0	1.0	0.705	f	TR
53.986	2.0	2-back	0.0	1.0	0.631	z	BL
56.002	2.0	2-back	0.0	1.0	0.73	c	BR
58.018	2.0	2-back	0.0	1.0	0.562	g	TR
60.033	2.0	2-back	1.0	1.0	0.803	c	BL
62.049	2.0	2-back	0.0	1.0	0.583	p	BR
64.065	2.0	2-back	0.0	1.0	0.528	v	BR
66.081	2.0	2-back	1.0	1.0	0.545	p	TR
68.096	2.0	2-back	0.0	1.0	0.663	s	TL
70.112	2.0	2-back	0.0	1.0	0.717	t	BR
72.128	2.0	2-back	1.0	1.0	0.615	s	TR
74.144	2.0	2-back	0.0	1.0	0.605	r	TL
76.159	2.0	2-back	0.0	1.0	0.515	z	BL
78.175	2.0	2-back	1.0	1.0	0.473	r	TR
80.191	2.0	2-back	1.0	1.0	0.71	z	BR
82.207	2.0	2-back	0.0	1.0	0.494	n	TL
84.222	2.0	2-back	0.0	1.0	0.704	g	TR
86.238	2.0	2-back	1.0	1.0	0.555	n	BL
88.254	2.0	2-back	0.0	1.0	0.545	x	BR
90.269	2.0	2-back	0.0	1.0	0.653	v	TR
92.285	2.0	2-back	1.0	1.0	0.657	x	BL
94.301	2.0	2-back	0.0	1.0	0.479	l	BL
96.317	2.0	2-back	0.0	1.0	0.832	f	TL
98.332	2.0	2-back	1.0	1.0	0.471	l	BR
104.396	2.0	baseline	n/a	1.0	n/a	blackcross.bmp	n/a
106.445	2.0	baseline	1.0	1.0	0.356	redcross.bmp	n/a
108.494	2.0	baseline	n/a	1.0	n/a	blackcross.bmp	n/a
110.543	2.0	baseline	1.0	1.0	0.339	redcross.bmp	n/a
112.592	2.0	baseline	n/a	1.0	n/a	blackcross.bmp	n/a
114.641	2.0	baseline	n/a	1.0	n/a	blackcross.bmp	n/a
116.69	2.0	baseline	n/a	1.0	n/a	blackcross.bmp	n/a
118.739	2.0	baseline	1.0	1.0	0.355	redcross.bmp	n/a
120.788	2.0	baseline	n/a	1.0	n/a	blackcross.bmp	n/a
122.837	2.0	baseline	1.0	1.0	0.578	redcross.bmp	n/a
124.886	2.0	baseline	n/a	1.0	n/a	blackcross.bmp	n/a
126.935	2.0	baseline	n/a	1.0	n/a	blackcross.bmp	n/a
132.983	1.8	no_response	n/a	1.0	n/a	v	TR
134.782	2.0	1-back	1.0	1.0	0.845	v	BL
136.798	2.0	1-back	0.0	1.0	0.708	p	TR
138.814	2.0	1-back	0.0	1.0	0.648	g	BL
140.829	2.0	1-back	1.0	1.0	0.583	g	TL
142.845	2.0	1-back	0.0	1.0	0.391	z	BR
144.861	2.0	1-back	0.0	1.0	0.622	l	TL
146.877	2.0	1-back	0.0	1.0	0.638	t	BL
148.892	2.0	1-back	1.0	1.0	0.722	t	TR
150.908	2.0	1-back	0.0	1.0	0.547	s	BR
152.924	2.0	1-back	0.0	1.0	0.594	l	TL
154.939	2.0	1-back	0.0	1.0	0.648	x	BR
156.955	2.0	1-back	1.0	1.0	0.455	x	TR
158.971	2.0	1-back	1.0	1.0	0.712	x	TL
160.987	2.0	1-back	0.0	1.0	0.653	s	TR
163.002	2.0	1-back	1.0	1.0	0.671	s	BL
165.018	2.0	1-back	0.0	1.0	0.531	n	TR
167.034	2.0	1-back	0.0	1.0	0.517	r	TL
169.05	2.0	1-back	0.0	1.0	0.743	s	TR
171.065	2.0	1-back	0.0	1.0	0.637	t	BL
173.081	2.0	1-back	1.0	1.0	0.471	t	TR
175.097	2.0	1-back	0.0	1.0	0.472	l	BR
177.112	2.0	1-back	0.0	1.0	0.64	r	BL
179.128	2.0	1-back	0.0	1.0	0.598	f	TL
181.144	2.0	1-back	1.0	1.0	0.448	f	BL
183.16	2.0	1-back	0.0	1.0	0.555	z	BR
185.175	2.0	1-back	1.0	1.0	0.597	z	BL
187.191	2.0	1-back	0.0	1.0	0.612	c	TL
189.207	2.0	1-back	1.0	1.0	0.518	c	TR
191.223	2.0	1-back	0.0	1.0	0.474	p	BR
193.238	2.0	1-back	1.0	1.0	0.575	p	BL
195.254	2.0	1-back	0.0	1.0	0.486	n	TL
197.27	2.0	1-back	1.0	1.0	0.58	n	TR
199.286	2.0	1-back	0.0	1.0	0.48	f	BL
201.301	2.0	1-back	1.0	1.0	0.504	f	BR
203.317	2.0	1-back	0.0	1.0	0.408	l	TL
205.333	2.0	1-back	0.0	1.0	0.534	r	BR
207.348	2.0	1-back	1.0	1.0	0.492	r	TL
209.364	2.0	1-back	0.0	1.0	0.499	z	BR
211.38	2.0	1-back	0.0	1.0	0.533	n	BL
213.396	2.0	1-back	0.0	1.0	0.597	c	TL
215.411	2.0	1-back	1.0	1.0	0.482	c	TR
217.427	2.0	1-back	0.0	1.0	0.471	v	BR
219.443	2.0	1-back	1.0	1.0	0.548	v	TL
221.459	2.0	1-back	0.0	1.0	0.409	x	TR
223.474	2.0	1-back	0.0	1.0	0.501	g	BR
225.49	2.0	1-back	0.0	1.0	0.548	p	BL
227.506	2.0	1-back	0.0	1.0	0.428	g	BR
233.569	2.0	baseline	n/a	1.0	n/a	blackcross.bmp	n/a
235.618	2.0	baseline	n/a	1.0	n/a	blackcross.bmp	n/a
237.668	2.0	baseline	1.0	1.0	0.344	redcross.bmp	n/a
239.717	2.0	baseline	1.0	1.0	0.35	redcross.bmp	n/a
241.766	2.0	baseline	n/a	1.0	n/a	blackcross.bmp	n/a
243.815	2.0	baseline	n/a	1.0	n/a	blackcross.bmp	n/a
245.864	2.0	baseline	n/a	1.0	n/a	blackcross.bmp	n/a
247.913	2.0	baseline	1.0	1.0	0.338	redcross.bmp	n/a
249.962	2.0	baseline	n/a	1.0	n/a	blackcross.bmp	n/a
252.011	2.0	baseline	n/a	1.0	n/a	blackcross.bmp	n/a
254.06	2.0	baseline	1.0	1.0	0.366	redcross.bmp	n/a
256.109	2.0	baseline	n/a	1.0	n/a	blackcross.bmp	n/a
