onset	duration	trial_type	correct_response	accuracy	response_time	stimulus	position
4.026	1.8	no_response	n/a	1.0	n/a	c	TR
5.825	2.0	1-back	0.0	1.0	0.558	g	BL
7.824	2.0	1-back	0.0	1.0	0.471	p	TR
9.824	2.0	1-back	1.0	1.0	0.589	p	BL
11.823	2.0	1-back	0.0	1.0	0.508	t	TL
13.822	2.0	1-back	0.0	1.0	0.558	v	BR
15.821	2.0	1-back	1.0	1.0	0.502	v	TL
17.82	2.0	1-back	0.0	1.0	0.568	s	BL
19.819	2.0	1-back	1.0	1.0	0.554	s	TR
21.818	2.0	1-back	0.0	1.0	0.528	x	BR
23.817	2.0	1-back	0.0	1.0	0.524	n	TL
25.816	2.0	1-back	1.0	1.0	0.596	n	BR
27.815	2.0	1-back	0.0	1.0	0.478	f	TR
29.814	2.0	1-back	1.0	1.0	0.637	f	TL
31.813	2.0	1-back	0.0	1.0	0.571	l	TR
33.812	2.0	1-back	0.0	1.0	0.525	r	BL
35.811	2.0	1-back	0.0	1.0	0.544	z	TR
37.811	2.0	1-back	1.0	1.0	0.642	z	TL
39.81	2.0	1-back	0.0	1.0	0.578	c	TR
41.809	2.0	1-back	1.0	1.0	0.593	c	BL
43.808	2.0	1-back	0.0	1.0	0.583	g	TR
45.807	2.0	1-back	1.0	1.0	0.7	g	BR
47.806	2.0	1-back	0.0	1.0	0.629	x	BL
49.805	2.0	1-back	0.0	1.0	0.57	t	TL
51.804	2.0	1-back	1.0	1.0	0.824	t	BL
53.803	2.0	1-back	0.0	1.0	0.623	r	BR
55.802	2.0	1-back	0.0	1.0	0.651	p	BL
57.801	2.0	1-back	0.0	1.0	0.62	v	TL
59.8	2.0	1-back	0.0	1.0	0.567	s	TR
61.799	2.0	1-back	1.0	1.0	0.652	s	BR
63.798	2.0	1-back	0.0	1.0	0.623	x	BL
65.798	2.0	1-back	1.0	1.0	0.658	x	TL
67.797	2.0	1-back	0.0	1.0	0.633	l	TR
69.796	2.0	1-back	1.0	1.0	0.803	l	BL
71.795	2.0	1-back	0.0	1.0	0.601	n	BR
73.794	2.0	1-back	1.0	1.0	0.6	n	TL
75.793	2.0	1-back	0.0	1.0	0.592	z	BR
77.792	2.0	1-back	1.0	1.0	0.697	z	TL
79.791	2.0	1-back	0.0	1.0	0.599	c	BR
81.79	2.0	1-back	0.0	1.0	0.678	g	BL
83.789	2.0	1-back	0.0	1.0	0.563	p	TL
85.788	2.0	1-back	0.0	1.0	0.605	t	TR
87.787	2.0	1-back	0.0	1.0	0.575	v	BR
89.786	2.0	1-back	0.0	1.0	0.698	f	TL
91.786	2.0	1-back	1.0	1.0	0.468	f	TR
93.785	2.0	1-back	0.0	1.0	0.541	l	BR
95.784	2.0	1-back	0.0	1.0	0.555	r	BL
97.783	2.0	1-back	1.0	1.0	0.634	r	BR
103.83	2.0	baseline	1.0	1.0	0.418	redcross.bmp	n/a
105.879	2.0	baseline	n/a	1.0	n/a	blackcross.bmp	n/a
107.928	2.0	baseline	1.0	1.0	0.354	redcross.bmp	n/a
109.977	2.0	baseline	n/a	1.0	n/a	blackcross.bmp	n/a
112.026	2.0	baseline	n/a	1.0	n/a	blackcross.bmp	n/a
114.075	2.0	baseline	1.0	1.0	0.393	redcross.bmp	n/a
116.124	2.0	baseline	n/a	1.0	n/a	blackcross.bmp	n/a
118.173	2.0	baseline	1.0	1.0	0.608	redcross.bmp	n/a
120.222	2.0	baseline	n/a	1.0	n/a	blackcross.bmp	n/a
122.271	2.0	baseline	n/a	1.0	n/a	blackcross.bmp	n/a
124.32	2.0	baseline	n/a	1.0	n/a	blackcross.bmp	n/a
126.369	2.0	baseline	n/a	1.0	n/a	blackcross.bmp	n/a
132.417	1.8	no_response	n/a	1.0	n/a	r	TR
134.216	1.8	no_response	n/a	1.0	n/a	p	BL
136.015	2.0	2-back	0.0	1.0	0.714	s	BL
138.014	2.0	2-back	1.0	1.0	0.761	p	TR
140.013	2.0	2-back	0.0	1.0	0.625	c	TL
142.012	2.0	2-back	0.0	1.0	0.625	g	TL
144.011	2.0	2-back	1.0	1.0	0.532	c	BL
146.01	2.0	2-back	0.0	1.0	0.563	f	TR
148.009	2.0	2-back	0.0	1.0	0.659	x	TR
150.009	2.0	2-back	0.0	1.0	0.696	z	TL
152.008	2.0	2-back	1.0	1.0	0.755	x	BR
154.007	2.0	2-back	0.0	1.0	0.537	g	BL
156.006	2.0	2-back	0.0	1.0	0.796	v	TL
158.005	2.0	2-back	1.0	1.0	0.715	g	TL
160.004	2.0	2-back	1.0	1.0	0.666	v	TR
162.003	2.0	2-back	0.0	1.0	0.483	z	BR
164.002	2.0	2-back	0.0	1.0	0.666	n	TL
166.001	2.0	2-back	1.0	1.0	0.715	z	TL
168.0	2.0	2-back	0.0	1.0	0.747	s	BL
169.999	2.0	2-back	1.0	0.0	0.89	z	BR
171.998	2.0	2-back	0.0	1.0	0.783	t	TL
173.997	2.0	2-back	0.0	1.0	0.826	f	BL
175.996	2.0	2-back	1.0	1.0	0.725	t	BR
177.996	2.0	2-back	0.0	1.0	0.757	r	BR
179.995	2.0	2-back	0.0	1.0	1.112	c	TR
181.994	2.0	2-back	1.0	1.0	0.736	r	BL
183.993	2.0	2-back	0.0	1.0	0.784	f	BR
185.992	2.0	2-back	0.0	1.0	0.809	t	TR
187.991	2.0	2-back	1.0	1.0	0.725	f	BL
189.99	2.0	2-back	0.0	1.0	0.657	c	BR
191.989	2.0	2-back	0.0	1.0	1.091	l	BR
193.988	2.0	2-back	0.0	1.0	0.682	n	TR
195.987	2.0	2-back	1.0	1.0	0.714	l	TL
197.986	2.0	2-back	0.0	1.0	0.637	s	BR
199.985	2.0	2-back	0.0	1.0	0.642	g	TR
201.984	2.0	2-back	1.0	0.0	0.705	s	TL
203.984	2.0	2-back	0.0	1.0	0.602	l	BL
205.983	2.0	2-back	0.0	0.0	0.821	r	TR
207.982	2.0	2-back	0.0	1.0	0.765	x	BR
209.981	2.0	2-back	0.0	1.0	0.802	t	TL
211.98	2.0	2-back	1.0	1.0	0.78	x	TR
213.979	2.0	2-back	0.0	1.0	0.547	n	BL
215.978	2.0	2-back	0.0	1.0	0.698	p	BR
217.977	2.0	2-back	1.0	1.0	0.615	n	TR
219.976	2.0	2-back	1.0	1.0	0.689	p	BL
221.975	2.0	2-back	0.0	1.0	0.519	v	BL
223.974	2.0	2-back	0.0	1.0	0.517	l	TL
225.973	2.0	2-back	1.0	1.0	0.459	v	BR
232.02	2.0	baseline	n/a	1.0	n/a	blackcross.bmp	n/a
234.069	2.0	baseline	1.0	1.0	0.387	n/a	n/a
236.118	2.0	baseline	n/a	1.0	n/a	blackcross.bmp	n/a
238.167	2.0	baseline	n/a	1.0	n/a	blackcross.bmp	n/a
240.216	2.0	baseline	n/a	1.0	n/a	blackcross.bmp	n/a
242.265	2.0	baseline	1.0	1.0	0.409	n/a	n/a
244.315	2.0	baseline	n/a	1.0	n/a	blackcross.bmp	n/a
246.364	2.0	baseline	n/a	1.0	n/a	blackcross.bmp	n/a
248.413	2.0	baseline	1.0	1.0	0.44	n/a	n/a
250.462	2.0	baseline	1.0	1.0	0.498	n/a	n/a
252.511	2.0	baseline	n/a	1.0	n/a	blackcross.bmp	n/a
254.56	2.0	baseline	n/a	1.0	n/a	blackcross.bmp	n/a
