onset	duration	trial_type	correct_response	accuracy	response_time	stimulus	position
4.033	1.8	no_response	n/a	1.0	n/a	l	TR
5.839	2.0	1-back	1.0	1.0	0.769	x	TR
7.845	2.0	1-back	0.0	1.0	1.029	l	BL
9.852	2.0	1-back	1.0	1.0	0.776	s	BL
11.858	2.0	1-back	0.0	1.0	0.612	g	TL
13.864	2.0	1-back	0.0	1.0	0.624	r	BR
15.87	2.0	1-back	0.0	1.0	0.679	s	TL
17.877	2.0	1-back	0.0	1.0	0.581	z	BL
19.883	2.0	1-back	0.0	1.0	0.61	t	TR
21.889	2.0	1-back	1.0	1.0	0.61	x	TR
23.895	2.0	1-back	0.0	1.0	0.564	n	BR
25.902	2.0	1-back	0.0	1.0	0.63	l	TL
27.908	2.0	1-back	1.0	1.0	0.607	g	TL
29.914	2.0	1-back	0.0	1.0	0.572	r	BR
31.92	2.0	1-back	1.0	1.0	0.7	p	BR
33.927	2.0	1-back	0.0	1.0	0.536	z	TR
35.933	2.0	1-back	0.0	1.0	0.974	r	BL
37.939	2.0	1-back	1.0	1.0	0.724	x	BL
39.945	2.0	1-back	0.0	1.0	0.677	p	TR
41.952	2.0	1-back	0.0	1.0	0.635	c	BL
43.958	2.0	1-back	0.0	1.0	0.656	f	TR
45.964	2.0	1-back	1.0	1.0	0.71	l	TR
47.97	2.0	1-back	1.0	1.0	0.792	t	TR
49.977	2.0	1-back	0.0	1.0	0.65	f	TL
51.983	2.0	1-back	0.0	1.0	0.788	r	BL
53.989	2.0	1-back	1.0	1.0	0.659	s	BL
55.995	2.0	1-back	0.0	1.0	0.666	f	TR
58.002	2.0	1-back	0.0	1.0	0.677	c	BR
60.008	2.0	1-back	1.0	1.0	0.639	z	BR
62.014	2.0	1-back	0.0	1.0	0.531	v	BL
64.02	2.0	1-back	0.0	1.0	0.674	p	TL
66.027	2.0	1-back	1.0	1.0	0.608	t	TL
68.033	2.0	1-back	0.0	1.0	0.626	c	BL
70.039	2.0	1-back	0.0	1.0	0.607	p	BR
72.045	2.0	1-back	0.0	1.0	0.591	v	TL
74.052	2.0	1-back	1.0	1.0	0.48	n	TL
76.058	2.0	1-back	0.0	1.0	0.483	s	BR
78.064	2.0	1-back	1.0	1.0	0.595	z	BR
80.07	2.0	1-back	0.0	1.0	0.583	v	BL
82.077	2.0	1-back	0.0	1.0	0.556	n	BR
84.083	2.0	1-back	0.0	1.0	0.523	t	TL
86.089	2.0	1-back	1.0	1.0	0.606	g	TL
88.095	2.0	1-back	0.0	1.0	0.49	x	TR
90.102	2.0	1-back	1.0	1.0	0.636	g	TR
92.108	2.0	1-back	0.0	1.0	0.475	c	TL
94.114	2.0	1-back	0.0	1.0	0.542	v	BL
96.12	2.0	1-back	0.0	1.0	0.584	f	BR
98.127	2.0	1-back	1.0	1.0	0.61	n	BR
104.164	2.0	baseline	n/a	1.0	n/a	blackcross.bmp	n/a
106.22	2.0	baseline	n/a	1.0	n/a	blackcross.bmp	n/a
108.277	2.0	baseline	1.0	1.0	0.359	redcross.bmp	n/a
110.333	2.0	baseline	1.0	1.0	0.511	redcross.bmp	n/a
112.39	2.0	baseline	n/a	1.0	n/a	blackcross.bmp	n/a
114.446	2.0	baseline	n/a	1.0	n/a	blackcross.bmp	n/a
116.503	2.0	baseline	n/a	1.0	n/a	blackcross.bmp	n/a
118.559	2.0	baseline	n/a	1.0	n/a	blackcross.bmp	n/a
120.615	2.0	baseline	1.0	1.0	0.483	redcross.bmp	n/a
122.672	2.0	baseline	n/a	1.0	n/a	blackcross.bmp	n/a
124.728	2.0	baseline	1.0	1.0	0.46	redcross.bmp	n/a
126.785	2.0	baseline	n/a	1.0	n/a	blackcross.bmp	n/a
132.835	1.8	no_response	n/a	1.0	n/a	v	BL
134.641	1.8	no_response	n/a	1.0	n/a	c	BR
136.446	2.0	2-back	1.0	1.0	0.68	g	BL
138.452	2.0	2-back	0.0	1.0	0.717	p	TR
140.459	2.0	2-back	0.0	1.0	0.742	n	TL
142.465	2.0	2-back	1.0	1.0	0.686	x	TR
144.471	2.0	2-back	0.0	1.0	0.645	p	BL
146.477	2.0	2-back	0.0	1.0	0.634	c	TL
148.484	2.0	2-back	0.0	0.0	0.69	l	TL
150.49	2.0	2-back	0.0	1.0	0.881	v	TR
152.496	2.0	2-back	1.0	1.0	1.078	x	TL
154.502	2.0	2-back	1.0	1.0	1.1	g	TR
156.509	2.0	2-back	0.0	0.0	n/a	t	BR
158.515	2.0	2-back	0.0	1.0	0.952	z	BL
160.521	2.0	2-back	1.0	1.0	0.846	n	BR
162.527	2.0	2-back	0.0	1.0	0.9	f	TR
164.534	2.0	2-back	0.0	1.0	0.916	x	TL
166.54	2.0	2-back	0.0	1.0	0.873	n	BL
168.546	2.0	2-back	1.0	1.0	0.837	t	TL
170.553	2.0	2-back	0.0	1.0	0.817	l	BR
172.559	2.0	2-back	0.0	1.0	0.994	r	BL
174.565	2.0	2-back	1.0	1.0	0.907	f	BR
176.571	2.0	2-back	0.0	1.0	0.832	s	BR
178.578	2.0	2-back	0.0	1.0	0.825	v	TL
180.584	2.0	2-back	0.0	1.0	0.934	n	TR
182.59	2.0	2-back	1.0	1.0	0.835	p	TL
184.596	2.0	2-back	0.0	1.0	0.765	s	BL
186.603	2.0	2-back	0.0	1.0	0.783	g	BR
188.609	2.0	2-back	1.0	1.0	0.735	f	BL
190.615	2.0	2-back	0.0	1.0	0.71	r	TR
192.621	2.0	2-back	0.0	1.0	0.663	s	TL
194.628	2.0	2-back	0.0	1.0	0.668	z	BL
196.634	2.0	2-back	1.0	1.0	0.851	c	TL
198.64	2.0	2-back	0.0	1.0	0.67	r	BR
200.646	2.0	2-back	0.0	1.0	0.776	v	TR
202.653	2.0	2-back	1.0	1.0	0.546	l	BR
204.659	2.0	2-back	1.0	1.0	0.782	c	TR
206.665	2.0	2-back	0.0	1.0	0.678	s	BL
208.671	2.0	2-back	0.0	1.0	0.726	t	TL
210.678	2.0	2-back	0.0	1.0	0.692	r	TR
212.684	2.0	2-back	0.0	1.0	0.7	z	BL
214.69	2.0	2-back	1.0	1.0	0.952	l	TR
216.696	2.0	2-back	1.0	0.0	0.915	x	BL
218.703	2.0	2-back	0.0	1.0	0.728	f	BR
220.709	2.0	2-back	0.0	1.0	0.77	p	TR
222.715	2.0	2-back	1.0	1.0	0.6	g	BR
224.721	2.0	2-back	0.0	1.0	0.596	t	BL
226.728	2.0	2-back	1.0	1.0	0.747	z	BR
232.765	2.0	baseline	n/a	1.0	n/a	blackcross.bmp	n/a
234.821	2.0	baseline	n/a	1.0	n/a	blackcross.bmp	n/a
236.878	2.0	baseline	1.0	1.0	0.448	redcross.bmp	n/a
238.934	2.0	baseline	1.0	1.0	0.35	redcross.bmp	n/a
240.991	2.0	baseline	n/a	1.0	n/a	blackcross.bmp	n/a
243.047	2.0	baseline	n/a	1.0	n/a	blackcross.bmp	n/a
245.103	2.0	baseline	n/a	1.0	n/a	blackcross.bmp	n/a
247.16	2.0	baseline	1.0	1.0	0.757	redcross.bmp	n/a
249.216	2.0	baseline	n/a	1.0	n/a	blackcross.bmp	n/a
251.273	2.0	baseline	1.0	1.0	0.414	redcross.bmp	n/a
253.329	2.0	baseline	n/a	1.0	n/a	blackcross.bmp	n/a
255.385	2.0	baseline	n/a	1.0	n/a	blackcross.bmp	n/a
