onset	duration	trial_type	correct_response	accuracy	response_time	stimulus	position
4.083	1.8	no_response	n/a	1.0	n/a	z	TR
5.889	1.8	no_response	n/a	1.0	n/a	n	BL
7.695	2.0	2-back	0.0	0.0	1.071	g	BL
9.718	2.0	2-back	0.0	1.0	0.775	p	TR
11.741	2.0	2-back	1.0	0.0	0.8	g	TL
13.764	2.0	2-back	0.0	1.0	0.578	s	TL
15.787	2.0	2-back	0.0	0.0	0.422	f	BL
17.81	2.0	2-back	1.0	0.0	0.513	s	TR
19.833	2.0	2-back	1.0	0.0	0.392	f	TR
21.856	2.0	2-back	0.0	1.0	0.452	c	TL
23.879	2.0	2-back	0.0	1.0	0.505	x	BR
25.902	2.0	2-back	1.0	0.0	0.284	c	BL
27.924	2.0	2-back	0.0	1.0	0.448	l	TL
29.947	2.0	2-back	0.0	1.0	0.468	v	TL
31.97	2.0	2-back	0.0	1.0	0.328	p	TR
33.993	2.0	2-back	1.0	0.0	0.353	v	BR
36.016	2.0	2-back	0.0	1.0	0.356	c	TL
38.039	2.0	2-back	0.0	0.0	0.442	s	TL
40.062	2.0	2-back	0.0	1.0	0.276	t	BL
42.085	2.0	2-back	0.0	1.0	0.23	x	BR
44.108	2.0	2-back	1.0	0.0	0.214	t	TL
46.131	2.0	2-back	0.0	1.0	0.029	r	BL
48.154	2.0	2-back	0.0	1.0	0.08	n	BR
50.177	2.0	2-back	1.0	0.0	n/a	r	BR
52.2	2.0	2-back	0.0	1.0	0.012	l	TR
54.223	2.0	2-back	0.0	0.0	n/a	v	BL
56.246	2.0	2-back	1.0	0.0	n/a	l	BR
58.269	2.0	2-back	1.0	0.0	n/a	v	TR
60.292	2.0	2-back	0.0	1.0	0.101	s	BL
62.315	2.0	2-back	0.0	1.0	0.337	t	BR
64.338	2.0	2-back	0.0	1.0	0.092	c	BR
66.361	2.0	2-back	1.0	0.0	0.355	t	TR
68.384	2.0	2-back	0.0	1.0	0.234	n	TL
70.407	2.0	2-back	0.0	1.0	0.284	l	BR
72.43	2.0	2-back	1.0	0.0	0.361	n	TR
74.453	2.0	2-back	0.0	1.0	0.325	p	TL
76.476	2.0	2-back	0.0	1.0	0.27	x	BL
78.499	2.0	2-back	1.0	0.0	0.296	p	TR
80.522	2.0	2-back	0.0	1.0	0.269	f	BR
82.545	2.0	2-back	0.0	0.0	0.196	z	TL
84.568	2.0	2-back	1.0	0.0	0.123	f	TR
86.591	2.0	2-back	0.0	1.0	0.265	r	BL
88.614	2.0	2-back	0.0	1.0	0.274	x	BR
90.637	2.0	2-back	1.0	0.0	0.188	r	TR
92.66	2.0	2-back	0.0	1.0	0.834	g	BL
94.683	2.0	2-back	0.0	1.0	1.004	z	BL
96.706	2.0	2-back	1.0	0.0	0.949	g	TL
98.729	2.0	2-back	1.0	1.0	0.91	z	BR
104.816	2.0	baseline	n/a	0.0	0.567	blackcross.bmp	n/a
106.873	2.0	baseline	1.0	1.0	0.403	redcross.bmp	n/a
108.929	2.0	baseline	n/a	1.0	n/a	blackcross.bmp	n/a
110.985	2.0	baseline	n/a	1.0	n/a	blackcross.bmp	n/a
113.042	2.0	baseline	n/a	1.0	n/a	blackcross.bmp	n/a
115.098	2.0	baseline	n/a	1.0	n/a	blackcross.bmp	n/a
117.155	2.0	baseline	1.0	1.0	0.397	redcross.bmp	n/a
119.211	2.0	baseline	n/a	1.0	n/a	blackcross.bmp	n/a
121.267	2.0	baseline	n/a	1.0	n/a	blackcross.bmp	n/a
123.324	2.0	baseline	n/a	1.0	n/a	blackcross.bmp	n/a
125.38	2.0	baseline	1.0	1.0	0.352	redcross.bmp	n/a
127.437	2.0	baseline	1.0	1.0	0.353	redcross.bmp	n/a
133.504	1.8	no_response	n/a	1.0	n/a	l	TR
135.309	2.0	1-back	1.0	0.0	0.948	l	BL
137.332	2.0	1-back	0.0	1.0	0.664	s	TR
139.355	2.0	1-back	0.0	1.0	0.416	z	BL
141.378	2.0	1-back	0.0	1.0	0.542	t	TL
143.401	2.0	1-back	0.0	1.0	0.591	x	BR
145.424	2.0	1-back	1.0	1.0	0.515	x	TL
147.447	2.0	1-back	0.0	1.0	0.405	n	BL
149.47	2.0	1-back	0.0	1.0	0.359	s	TR
151.493	2.0	1-back	0.0	1.0	0.308	l	BR
153.516	2.0	1-back	1.0	0.0	0.296	l	TL
155.539	2.0	1-back	0.0	1.0	0.345	g	BR
157.562	2.0	1-back	1.0	0.0	0.324	g	TR
159.585	2.0	1-back	0.0	1.0	0.315	r	TL
161.608	2.0	1-back	1.0	0.0	0.211	r	TR
163.631	2.0	1-back	0.0	0.0	0.237	x	BL
165.654	2.0	1-back	0.0	1.0	0.112	p	TR
167.677	2.0	1-back	1.0	0.0	0.124	p	TL
169.7	2.0	1-back	0.0	1.0	0.245	c	TR
171.723	2.0	1-back	0.0	1.0	0.333	r	BL
173.746	2.0	1-back	0.0	1.0	0.253	f	TR
175.769	2.0	1-back	1.0	0.0	0.189	f	BR
177.792	2.0	1-back	1.0	0.0	0.265	f	BL
179.815	2.0	1-back	0.0	0.0	0.135	c	TL
181.838	2.0	1-back	0.0	1.0	0.083	z	BL
183.861	2.0	1-back	1.0	0.0	0.128	z	BR
185.884	2.0	1-back	0.0	1.0	0.513	v	BL
187.907	2.0	1-back	0.0	1.0	0.656	p	TL
189.93	2.0	1-back	1.0	1.0	0.763	p	TR
191.953	2.0	1-back	0.0	1.0	0.591	n	BR
193.976	2.0	1-back	0.0	1.0	0.734	s	BL
195.999	2.0	1-back	1.0	1.0	0.822	s	TL
198.022	2.0	1-back	0.0	1.0	0.66	z	TR
200.044	2.0	1-back	0.0	1.0	0.779	v	BL
202.067	2.0	1-back	0.0	1.0	0.513	t	BR
204.09	2.0	1-back	1.0	1.0	0.742	t	TL
206.113	2.0	1-back	1.0	1.0	0.69	t	BR
208.136	2.0	1-back	0.0	1.0	0.519	g	TL
210.159	2.0	1-back	0.0	1.0	0.771	x	BR
212.182	2.0	1-back	0.0	1.0	0.671	g	BL
214.205	2.0	1-back	0.0	1.0	0.645	c	TL
216.228	2.0	1-back	1.0	1.0	0.809	c	TR
218.251	2.0	1-back	0.0	1.0	0.45	v	BR
220.274	2.0	1-back	1.0	0.0	0.435	v	TL
222.297	2.0	1-back	0.0	1.0	0.444	f	TR
224.32	2.0	1-back	0.0	1.0	0.525	r	BR
226.343	2.0	1-back	0.0	1.0	0.584	n	BL
228.366	2.0	1-back	1.0	0.0	0.543	n	BR
234.42	2.0	baseline	n/a	1.0	n/a	blackcross.bmp	n/a
236.477	2.0	baseline	n/a	1.0	n/a	blackcross.bmp	n/a
238.533	2.0	baseline	1.0	1.0	0.392	redcross.bmp	n/a
240.589	2.0	baseline	n/a	1.0	n/a	blackcross.bmp	n/a
242.646	2.0	baseline	n/a	1.0	n/a	blackcross.bmp	n/a
244.702	2.0	baseline	1.0	1.0	0.722	redcross.bmp	n/a
246.759	2.0	baseline	n/a	1.0	n/a	blackcross.bmp	n/a
248.815	2.0	baseline	n/a	1.0	n/a	blackcross.bmp	n/a
250.871	2.0	baseline	n/a	1.0	n/a	blackcross.bmp	n/a
252.928	2.0	baseline	1.0	1.0	0.355	redcross.bmp	n/a
254.984	2.0	baseline	n/a	1.0	n/a	blackcross.bmp	n/a
257.041	2.0	baseline	1.0	1.0	0.365	redcross.bmp	n/a
