onset	duration	trial_type	correct_response	accuracy	response_time	stimulus	position
4.026	1.8	no_response	n/a	1.0	n/a	c	BL
5.825	1.8	no_response	n/a	1.0	n/a	p	BR
7.624	2.0	2-back	1.0	1.0	0.789	n	BL
9.64	2.0	2-back	0.0	1.0	0.838	x	TR
11.656	2.0	2-back	0.0	1.0	0.774	g	TL
13.672	2.0	2-back	1.0	1.0	0.746	p	TR
15.687	2.0	2-back	1.0	1.0	0.506	c	TL
17.703	2.0	2-back	0.0	1.0	0.476	x	BL
19.719	2.0	2-back	1.0	1.0	0.678	l	TL
21.734	2.0	2-back	0.0	1.0	0.374	v	TR
23.75	2.0	2-back	0.0	0.0	0.564	g	TR
25.766	2.0	2-back	0.0	1.0	0.373	t	BR
27.782	2.0	2-back	0.0	1.0	0.383	z	BL
29.797	2.0	2-back	1.0	1.0	0.857	n	BR
31.813	2.0	2-back	0.0	1.0	0.797	f	TL
33.829	2.0	2-back	0.0	0.0	0.633	n	TR
35.844	2.0	2-back	1.0	0.0	0.406	t	TL
37.86	2.0	2-back	0.0	1.0	0.384	v	BL
39.876	2.0	2-back	1.0	1.0	0.67	l	TL
41.892	2.0	2-back	0.0	0.0	0.777	r	TL
43.907	2.0	2-back	0.0	1.0	0.372	s	BR
45.923	2.0	2-back	0.0	1.0	0.467	v	BL
47.939	2.0	2-back	1.0	0.0	0.407	n	BR
49.955	2.0	2-back	0.0	1.0	0.508	p	TL
51.97	2.0	2-back	0.0	1.0	1.111	s	TR
53.986	2.0	2-back	0.0	0.0	n/a	g	BR
56.002	2.0	2-back	0.0	1.0	0.377	p	BL
58.017	2.0	2-back	1.0	1.0	0.679	f	BR
60.033	2.0	2-back	0.0	1.0	0.398	r	TR
62.049	2.0	2-back	0.0	0.0	0.772	s	BL
64.065	2.0	2-back	1.0	0.0	0.419	z	TR
66.08	2.0	2-back	1.0	0.0	0.781	x	BL
68.096	2.0	2-back	0.0	0.0	0.569	c	TL
70.112	2.0	2-back	0.0	0.0	0.534	r	TR
72.127	2.0	2-back	0.0	1.0	0.445	v	BR
74.143	2.0	2-back	0.0	1.0	0.551	l	TL
76.159	2.0	2-back	1.0	0.0	0.493	c	BR
78.175	2.0	2-back	0.0	1.0	0.486	s	TR
80.19	2.0	2-back	1.0	1.0	0.653	t	BR
82.206	2.0	2-back	0.0	1.0	0.374	r	BL
84.222	2.0	2-back	0.0	1.0	0.941	f	TL
86.237	2.0	2-back	1.0	1.0	0.675	z	BL
88.253	2.0	2-back	0.0	1.0	0.484	l	TR
90.269	2.0	2-back	0.0	0.0	0.822	x	TL
92.285	2.0	2-back	1.0	0.0	0.508	f	TR
94.3	2.0	2-back	0.0	1.0	0.554	g	BR
96.316	2.0	2-back	0.0	0.0	0.723	t	BL
98.332	2.0	2-back	1.0	0.0	0.469	z	BR
104.395	2.0	baseline	n/a	1.0	n/a	blackcross.bmp	n/a
106.444	2.0	baseline	1.0	1.0	0.428	redcross.bmp	n/a
108.493	2.0	baseline	n/a	1.0	n/a	blackcross.bmp	n/a
110.542	2.0	baseline	1.0	1.0	0.49	redcross.bmp	n/a
112.592	2.0	baseline	n/a	1.0	n/a	blackcross.bmp	n/a
114.641	2.0	baseline	n/a	1.0	n/a	blackcross.bmp	n/a
116.69	2.0	baseline	n/a	1.0	n/a	blackcross.bmp	n/a
118.739	2.0	baseline	n/a	1.0	n/a	blackcross.bmp	n/a
120.788	2.0	baseline	1.0	1.0	0.606	redcross.bmp	n/a
122.837	2.0	baseline	n/a	1.0	n/a	blackcross.bmp	n/a
124.886	2.0	baseline	n/a	1.0	n/a	blackcross.bmp	n/a
126.935	2.0	baseline	1.0	1.0	0.42	redcross.bmp	n/a
130.983	1.8	no_response	n/a	1.0	n/a	v	TR
132.782	2.0	1-back	0.0	1.0	0.647	p	TL
134.798	2.0	1-back	0.0	1.0	0.7	z	BL
136.814	2.0	1-back	1.0	1.0	0.454	c	BL
138.829	2.0	1-back	0.0	1.0	0.664	t	TR
140.845	2.0	1-back	0.0	1.0	0.649	l	TL
142.861	2.0	1-back	1.0	1.0	0.601	c	TL
144.877	2.0	1-back	0.0	1.0	0.628	v	BL
146.892	2.0	1-back	0.0	1.0	0.681	n	BR
148.908	2.0	1-back	1.0	1.0	0.554	l	BR
150.924	2.0	1-back	0.0	1.0	0.755	v	TL
152.939	2.0	1-back	0.0	1.0	0.985	c	BR
154.955	2.0	1-back	0.0	1.0	1.065	r	TR
156.971	2.0	1-back	1.0	1.0	0.79	t	TR
158.987	2.0	1-back	0.0	1.0	0.725	n	BL
161.002	2.0	1-back	1.0	1.0	1.03	s	BL
163.018	2.0	1-back	0.0	1.0	0.526	v	TR
165.034	2.0	1-back	0.0	1.0	0.607	p	TL
167.05	2.0	1-back	1.0	1.0	0.315	c	TL
169.065	2.0	1-back	0.0	1.0	0.728	g	TR
171.081	2.0	1-back	1.0	1.0	0.823	z	TR
173.097	2.0	1-back	0.0	1.0	0.497	x	BR
175.112	2.0	1-back	0.0	1.0	0.664	g	BL
177.128	2.0	1-back	0.0	0.0	0.896	l	TL
179.144	2.0	1-back	0.0	1.0	0.519	r	BL
181.16	2.0	1-back	1.0	1.0	0.736	x	BL
183.175	2.0	1-back	0.0	1.0	0.593	f	BR
185.191	2.0	1-back	0.0	1.0	0.696	z	TR
187.207	2.0	1-back	1.0	1.0	0.452	r	TR
189.222	2.0	1-back	0.0	1.0	0.715	f	BL
191.238	2.0	1-back	1.0	0.0	0.682	n	BL
193.254	2.0	1-back	0.0	0.0	0.888	x	TR
195.27	2.0	1-back	1.0	0.0	0.382	t	TR
197.285	2.0	1-back	0.0	1.0	0.8	p	BR
199.301	2.0	1-back	1.0	1.0	0.711	x	BR
201.317	2.0	1-back	0.0	1.0	0.44	t	TL
203.332	2.0	1-back	1.0	0.0	0.774	s	TL
205.348	2.0	1-back	0.0	1.0	0.567	f	BL
207.364	2.0	1-back	0.0	1.0	0.577	l	BR
209.38	2.0	1-back	1.0	1.0	0.475	g	BR
211.395	2.0	1-back	0.0	1.0	0.561	n	TL
213.411	2.0	1-back	0.0	1.0	0.49	s	TR
215.427	2.0	1-back	0.0	1.0	0.748	p	BR
217.443	2.0	1-back	0.0	1.0	0.581	r	TL
219.458	2.0	1-back	1.0	1.0	0.547	s	TL
221.474	2.0	1-back	0.0	1.0	0.489	g	BR
223.49	2.0	1-back	1.0	0.0	0.566	z	BR
225.505	2.0	1-back	0.0	1.0	0.568	f	BL
231.569	2.0	baseline	n/a	1.0	n/a	blackcross.bmp	n/a
233.618	2.0	baseline	1.0	1.0	0.345	redcross.bmp	n/a
235.667	2.0	baseline	n/a	1.0	n/a	blackcross.bmp	n/a
237.716	2.0	baseline	1.0	1.0	0.551	redcross.bmp	n/a
239.765	2.0	baseline	n/a	1.0	n/a	blackcross.bmp	n/a
241.814	2.0	baseline	n/a	1.0	n/a	blackcross.bmp	n/a
243.863	2.0	baseline	1.0	1.0	0.422	redcross.bmp	n/a
245.912	2.0	baseline	n/a	1.0	n/a	blackcross.bmp	n/a
247.961	2.0	baseline	n/a	1.0	n/a	blackcross.bmp	n/a
250.01	2.0	baseline	n/a	1.0	n/a	blackcross.bmp	n/a
252.059	2.0	baseline	1.0	1.0	0.443	redcross.bmp	n/a
254.108	2.0	baseline	n/a	1.0	n/a	blackcross.bmp	n/a
