onset	duration	trial_type	correct_response	accuracy	response_time	stimulus	position
4.042	1.8	no_response	n/a	1.0	n/a	c	TR
5.842	2.0	1-back	0.0	1.0	0.624	g	BL
7.841	2.0	1-back	0.0	1.0	0.499	p	TR
9.84	2.0	1-back	1.0	1.0	0.692	p	BL
11.839	2.0	1-back	0.0	1.0	0.634	t	TL
13.838	2.0	1-back	0.0	1.0	0.684	v	BR
15.837	2.0	1-back	1.0	1.0	0.733	v	TL
17.836	2.0	1-back	0.0	1.0	0.79	s	BL
19.835	2.0	1-back	1.0	1.0	0.914	s	TR
21.834	2.0	1-back	0.0	1.0	0.909	x	BR
23.833	2.0	1-back	0.0	1.0	1.023	n	TL
25.832	2.0	1-back	1.0	1.0	1.081	n	BR
27.831	2.0	1-back	0.0	1.0	0.882	f	TR
29.83	2.0	1-back	1.0	1.0	0.787	f	TL
31.829	2.0	1-back	0.0	1.0	0.514	l	TR
33.829	2.0	1-back	0.0	1.0	0.864	r	BL
35.828	2.0	1-back	0.0	1.0	0.903	z	TR
37.827	2.0	1-back	1.0	1.0	0.89	z	TL
39.826	2.0	1-back	0.0	1.0	0.681	c	TR
41.825	2.0	1-back	1.0	1.0	0.809	c	BL
43.824	2.0	1-back	0.0	1.0	0.888	g	TR
45.823	2.0	1-back	1.0	0.0	1.08	g	BR
47.822	2.0	1-back	0.0	1.0	0.842	x	BL
49.821	2.0	1-back	0.0	1.0	0.859	t	TL
51.82	2.0	1-back	1.0	1.0	0.814	t	BL
53.819	2.0	1-back	0.0	1.0	0.785	r	BR
55.818	2.0	1-back	0.0	1.0	0.924	p	BL
57.817	2.0	1-back	0.0	1.0	0.971	v	TL
59.816	2.0	1-back	0.0	1.0	1.032	s	TR
61.815	2.0	1-back	1.0	1.0	0.982	s	BR
63.815	2.0	1-back	0.0	1.0	0.934	x	BL
65.814	2.0	1-back	1.0	1.0	0.938	x	TL
67.813	2.0	1-back	0.0	1.0	0.913	l	TR
69.812	2.0	1-back	1.0	1.0	0.894	l	BL
71.811	2.0	1-back	0.0	1.0	0.742	n	BR
73.81	2.0	1-back	1.0	1.0	1.104	n	TL
75.809	2.0	1-back	0.0	1.0	0.801	z	BR
77.808	2.0	1-back	1.0	1.0	0.979	z	TL
79.807	2.0	1-back	0.0	1.0	0.878	c	BR
81.806	2.0	1-back	0.0	1.0	0.893	g	BL
83.805	2.0	1-back	0.0	1.0	0.645	p	TL
85.804	2.0	1-back	0.0	1.0	0.88	t	TR
87.803	2.0	1-back	0.0	1.0	0.774	v	BR
89.802	2.0	1-back	0.0	1.0	0.822	f	TL
91.801	2.0	1-back	1.0	1.0	0.881	f	TR
93.8	2.0	1-back	0.0	1.0	0.781	l	BR
95.8	2.0	1-back	0.0	1.0	0.759	r	BL
97.799	2.0	1-back	1.0	1.0	0.822	r	BR
103.846	2.0	baseline	1.0	1.0	0.384	redcross.bmp	n/a
105.895	2.0	baseline	n/a	1.0	n/a	blackcross.bmp	n/a
107.944	2.0	baseline	1.0	1.0	0.459	redcross.bmp	n/a
109.993	2.0	baseline	n/a	1.0	n/a	blackcross.bmp	n/a
112.042	2.0	baseline	n/a	1.0	n/a	blackcross.bmp	n/a
114.091	2.0	baseline	1.0	1.0	0.581	redcross.bmp	n/a
116.14	2.0	baseline	n/a	1.0	n/a	blackcross.bmp	n/a
118.189	2.0	baseline	1.0	1.0	0.493	redcross.bmp	n/a
120.238	2.0	baseline	n/a	1.0	n/a	blackcross.bmp	n/a
122.287	2.0	baseline	n/a	1.0	n/a	blackcross.bmp	n/a
124.336	2.0	baseline	n/a	1.0	n/a	blackcross.bmp	n/a
126.385	2.0	baseline	n/a	1.0	n/a	blackcross.bmp	n/a
132.432	1.8	no_response	n/a	1.0	n/a	r	TR
134.232	1.8	no_response	n/a	1.0	n/a	p	BL
136.031	2.0	2-back	0.0	1.0	0.923	s	BL
138.03	2.0	2-back	1.0	1.0	0.711	p	TR
140.029	2.0	2-back	0.0	1.0	0.666	c	TL
142.028	2.0	2-back	0.0	1.0	0.71	g	TL
144.027	2.0	2-back	1.0	0.0	0.798	c	BL
146.026	2.0	2-back	0.0	1.0	0.684	f	TR
148.025	2.0	2-back	0.0	1.0	0.765	x	TR
150.024	2.0	2-back	0.0	0.0	0.65	z	TL
152.023	2.0	2-back	1.0	0.0	0.916	x	BR
154.022	2.0	2-back	0.0	1.0	0.577	g	BL
156.021	2.0	2-back	0.0	1.0	0.93	v	TL
158.021	2.0	2-back	1.0	1.0	0.813	g	TL
160.02	2.0	2-back	1.0	1.0	0.991	v	TR
162.019	2.0	2-back	0.0	1.0	0.454	z	BR
164.018	2.0	2-back	0.0	1.0	0.67	n	TL
166.017	2.0	2-back	1.0	1.0	0.717	z	TL
168.016	2.0	2-back	0.0	1.0	0.723	s	BL
170.015	2.0	2-back	1.0	1.0	0.717	z	BR
172.014	2.0	2-back	0.0	1.0	0.65	t	TL
174.013	2.0	2-back	0.0	1.0	0.646	f	BL
176.012	2.0	2-back	1.0	1.0	0.806	t	BR
178.011	2.0	2-back	0.0	1.0	0.542	r	BR
180.01	2.0	2-back	0.0	1.0	0.868	c	TR
182.009	2.0	2-back	1.0	1.0	0.91	r	BL
184.008	2.0	2-back	0.0	1.0	0.822	f	BR
186.007	2.0	2-back	0.0	1.0	0.906	t	TR
188.007	2.0	2-back	1.0	1.0	0.794	f	BL
190.006	2.0	2-back	0.0	1.0	0.742	c	BR
192.005	2.0	2-back	0.0	1.0	0.827	l	BR
194.004	2.0	2-back	0.0	1.0	0.819	n	TR
196.003	2.0	2-back	1.0	1.0	0.874	l	TL
198.002	2.0	2-back	0.0	1.0	0.88	s	BR
200.001	2.0	2-back	0.0	1.0	1.048	g	TR
202.0	2.0	2-back	1.0	0.0	0.765	s	TL
203.999	2.0	2-back	0.0	1.0	0.968	l	BL
205.998	2.0	2-back	0.0	1.0	1.005	r	TR
207.997	2.0	2-back	0.0	1.0	0.877	x	BR
209.996	2.0	2-back	0.0	1.0	1.034	t	TL
211.995	2.0	2-back	1.0	0.0	0.767	x	TR
213.994	2.0	2-back	0.0	1.0	0.757	n	BL
215.993	2.0	2-back	0.0	1.0	0.801	p	BR
217.992	2.0	2-back	1.0	0.0	1.154	n	TR
219.992	2.0	2-back	1.0	0.0	0.798	p	BL
221.991	2.0	2-back	0.0	1.0	0.827	v	BL
223.99	2.0	2-back	0.0	1.0	0.819	l	TL
225.989	2.0	2-back	1.0	1.0	0.869	v	BR
232.036	2.0	baseline	n/a	1.0	n/a	blackcross.bmp	n/a
234.085	2.0	baseline	1.0	1.0	0.394	n/a	n/a
236.134	2.0	baseline	n/a	1.0	n/a	blackcross.bmp	n/a
238.183	2.0	baseline	n/a	1.0	n/a	blackcross.bmp	n/a
240.232	2.0	baseline	n/a	1.0	n/a	blackcross.bmp	n/a
242.281	2.0	baseline	1.0	1.0	0.524	n/a	n/a
244.33	2.0	baseline	n/a	1.0	n/a	blackcross.bmp	n/a
246.379	2.0	baseline	n/a	1.0	n/a	blackcross.bmp	n/a
248.428	2.0	baseline	1.0	1.0	0.619	n/a	n/a
250.477	2.0	baseline	1.0	1.0	0.464	n/a	n/a
252.526	2.0	baseline	n/a	1.0	n/a	blackcross.bmp	n/a
254.575	2.0	baseline	n/a	1.0	n/a	blackcross.bmp	n/a
