onset	duration	trial_type	correct_response	accuracy	response_time	stimulus	position
4.026	1.8	no_response	n/a	0.0	1.332	c	TR
5.825	1.8	no_response	n/a	0.0	0.845	g	BL
7.624	2.0	2-back	1.0	1.0	0.907	c	BL
9.64	2.0	2-back	0.0	1.0	0.497	p	TR
11.655	2.0	2-back	0.0	1.0	1.147	v	TL
13.671	2.0	2-back	1.0	1.0	0.655	p	TL
15.687	2.0	2-back	0.0	1.0	0.457	s	BL
17.703	2.0	2-back	0.0	1.0	0.57	x	TR
19.718	2.0	2-back	1.0	1.0	0.757	s	TR
21.734	2.0	2-back	1.0	0.0	0.473	x	TL
23.75	2.0	2-back	0.0	1.0	0.462	n	BR
25.766	2.0	2-back	0.0	0.0	0.355	f	BL
27.781	2.0	2-back	1.0	0.0	0.074	n	TL
29.797	2.0	2-back	0.0	0.0	0.357	t	TL
31.813	2.0	2-back	0.0	0.0	0.569	l	TR
33.828	2.0	2-back	0.0	1.0	0.287	r	BR
35.844	2.0	2-back	1.0	0.0	0.211	l	TL
37.86	2.0	2-back	0.0	0.0	0.532	z	TL
39.876	2.0	2-back	0.0	1.0	0.307	v	BL
41.891	2.0	2-back	0.0	1.0	0.25	t	BR
43.907	2.0	2-back	0.0	1.0	0.144	g	TL
45.923	2.0	2-back	1.0	0.0	n/a	t	BL
47.939	2.0	2-back	0.0	1.0	0.198	f	BR
49.954	2.0	2-back	0.0	1.0	0.162	r	BR
51.97	2.0	2-back	1.0	0.0	0.327	f	TR
53.986	2.0	2-back	0.0	1.0	0.579	z	BL
56.001	2.0	2-back	0.0	1.0	0.495	c	BR
58.017	2.0	2-back	0.0	1.0	0.439	g	TR
60.033	2.0	2-back	1.0	0.0	0.401	c	BL
62.049	2.0	2-back	0.0	0.0	0.639	p	BR
64.064	2.0	2-back	0.0	1.0	0.182	v	BR
66.08	2.0	2-back	1.0	0.0	0.244	p	TR
68.096	2.0	2-back	0.0	0.0	0.34	s	TL
70.112	2.0	2-back	0.0	1.0	0.376	t	BR
72.127	2.0	2-back	1.0	0.0	0.259	s	TR
74.143	2.0	2-back	0.0	1.0	0.422	r	TL
76.159	2.0	2-back	0.0	1.0	0.296	z	BL
78.174	2.0	2-back	1.0	0.0	0.017	r	TR
80.19	2.0	2-back	1.0	0.0	n/a	z	BR
82.206	2.0	2-back	0.0	0.0	0.198	n	TL
84.222	2.0	2-back	0.0	1.0	0.503	g	TR
86.237	2.0	2-back	1.0	1.0	0.422	n	BL
88.253	2.0	2-back	0.0	0.0	0.088	x	BR
90.269	2.0	2-back	0.0	0.0	0.254	v	TR
92.285	2.0	2-back	1.0	0.0	0.256	x	BL
94.3	2.0	2-back	0.0	1.0	0.137	l	BL
96.316	2.0	2-back	0.0	1.0	0.85	f	TL
98.332	2.0	2-back	1.0	0.0	1.104	l	BR
104.395	2.0	baseline	n/a	1.0	n/a	blackcross.bmp	n/a
106.444	2.0	baseline	1.0	1.0	0.438	redcross.bmp	n/a
108.493	2.0	baseline	n/a	1.0	n/a	blackcross.bmp	n/a
110.542	2.0	baseline	1.0	1.0	0.399	redcross.bmp	n/a
112.591	2.0	baseline	n/a	1.0	n/a	blackcross.bmp	n/a
114.64	2.0	baseline	n/a	1.0	n/a	blackcross.bmp	n/a
116.689	2.0	baseline	n/a	1.0	n/a	blackcross.bmp	n/a
118.739	2.0	baseline	1.0	1.0	0.512	redcross.bmp	n/a
120.788	2.0	baseline	n/a	1.0	n/a	blackcross.bmp	n/a
122.837	2.0	baseline	1.0	1.0	0.383	redcross.bmp	n/a
124.886	2.0	baseline	n/a	1.0	n/a	blackcross.bmp	n/a
126.935	2.0	baseline	n/a	1.0	n/a	blackcross.bmp	n/a
132.982	1.8	no_response	n/a	0.0	0.669	v	TR
134.781	2.0	1-back	1.0	1.0	0.932	v	BL
136.797	2.0	1-back	0.0	1.0	0.446	p	TR
138.813	2.0	1-back	0.0	1.0	0.668	g	BL
140.829	2.0	1-back	1.0	1.0	0.541	g	TL
142.844	2.0	1-back	0.0	1.0	0.462	z	BR
144.86	2.0	1-back	0.0	1.0	0.591	l	TL
146.876	2.0	1-back	0.0	1.0	0.887	t	BL
148.891	2.0	1-back	1.0	0.0	0.567	t	TR
150.907	2.0	1-back	0.0	1.0	0.275	s	BR
152.923	2.0	1-back	0.0	1.0	0.573	l	TL
154.939	2.0	1-back	0.0	0.0	0.739	x	BR
156.954	2.0	1-back	1.0	0.0	0.335	x	TR
158.97	2.0	1-back	1.0	0.0	0.327	x	TL
160.986	2.0	1-back	0.0	0.0	0.531	s	TR
163.001	2.0	1-back	1.0	0.0	0.499	s	BL
165.017	2.0	1-back	0.0	1.0	0.246	n	TR
167.033	2.0	1-back	0.0	0.0	0.495	r	TL
169.049	2.0	1-back	0.0	1.0	0.319	s	TR
171.064	2.0	1-back	0.0	1.0	0.346	t	BL
173.08	2.0	1-back	1.0	1.0	0.636	t	TR
175.096	2.0	1-back	0.0	1.0	0.393	l	BR
177.112	2.0	1-back	0.0	1.0	0.545	r	BL
179.127	2.0	1-back	0.0	1.0	0.682	f	TL
181.143	2.0	1-back	1.0	1.0	0.575	f	BL
183.159	2.0	1-back	0.0	1.0	0.293	z	BR
185.174	2.0	1-back	1.0	1.0	0.493	z	BL
187.19	2.0	1-back	0.0	1.0	0.315	c	TL
189.206	2.0	1-back	1.0	0.0	0.496	c	TR
191.222	2.0	1-back	0.0	1.0	0.616	p	BR
193.237	2.0	1-back	1.0	1.0	0.303	p	BL
195.253	2.0	1-back	0.0	1.0	0.267	n	TL
197.269	2.0	1-back	1.0	1.0	0.318	n	TR
199.284	2.0	1-back	0.0	1.0	0.068	f	BL
201.3	2.0	1-back	1.0	1.0	0.311	f	BR
203.316	2.0	1-back	0.0	1.0	0.226	l	TL
205.332	2.0	1-back	0.0	0.0	0.33	r	BR
207.347	2.0	1-back	1.0	1.0	0.608	r	TL
209.363	2.0	1-back	0.0	1.0	0.364	z	BR
211.379	2.0	1-back	0.0	1.0	0.614	n	BL
213.395	2.0	1-back	0.0	1.0	0.663	c	TL
215.41	2.0	1-back	1.0	1.0	0.759	c	TR
217.426	2.0	1-back	0.0	1.0	0.445	v	BR
219.442	2.0	1-back	1.0	0.0	0.509	v	TL
221.458	2.0	1-back	0.0	1.0	0.65	x	TR
223.473	2.0	1-back	0.0	1.0	0.666	g	BR
225.489	2.0	1-back	0.0	1.0	0.79	p	BL
227.505	2.0	1-back	0.0	1.0	0.658	g	BR
233.568	2.0	baseline	n/a	1.0	n/a	blackcross.bmp	n/a
235.617	2.0	baseline	n/a	1.0	n/a	blackcross.bmp	n/a
237.666	2.0	baseline	1.0	1.0	0.348	redcross.bmp	n/a
239.715	2.0	baseline	1.0	1.0	0.455	redcross.bmp	n/a
241.764	2.0	baseline	n/a	1.0	n/a	blackcross.bmp	n/a
243.813	2.0	baseline	n/a	1.0	n/a	blackcross.bmp	n/a
245.862	2.0	baseline	n/a	1.0	n/a	blackcross.bmp	n/a
247.912	2.0	baseline	1.0	1.0	0.423	redcross.bmp	n/a
249.961	2.0	baseline	n/a	1.0	n/a	blackcross.bmp	n/a
252.01	2.0	baseline	n/a	1.0	n/a	blackcross.bmp	n/a
254.059	2.0	baseline	1.0	1.0	0.45	redcross.bmp	n/a
256.108	2.0	baseline	n/a	1.0	n/a	blackcross.bmp	n/a
