onset	duration	trial_type	correct_response	accuracy	response_time	stimulus	position
4.033	1.8	no_response	n/a	1.0	n/a	v	BL
5.833	1.8	no_response	n/a	0.0	0.601	c	BR
7.633	2.0	2-back	1.0	1.0	0.593	g	BL
9.633	2.0	2-back	0.0	1.0	0.699	p	TR
11.633	2.0	2-back	0.0	1.0	0.642	n	TL
13.633	2.0	2-back	1.0	1.0	0.918	x	TR
15.633	2.0	2-back	0.0	1.0	0.626	p	BL
17.633	2.0	2-back	0.0	1.0	0.766	c	TL
19.633	2.0	2-back	0.0	0.0	0.73	l	TL
21.633	2.0	2-back	0.0	1.0	0.802	v	TR
23.633	2.0	2-back	1.0	1.0	0.608	x	TL
25.633	2.0	2-back	1.0	0.0	0.382	g	TR
27.633	2.0	2-back	0.0	1.0	0.512	t	BR
29.633	2.0	2-back	0.0	0.0	0.257	z	BL
31.633	2.0	2-back	1.0	0.0	0.205	n	BR
33.633	2.0	2-back	0.0	1.0	0.32	f	TR
35.633	2.0	2-back	0.0	0.0	0.559	x	TL
37.633	2.0	2-back	0.0	0.0	0.643	n	BL
39.633	2.0	2-back	1.0	0.0	0.255	t	TL
41.632	2.0	2-back	0.0	1.0	0.292	l	BR
43.632	2.0	2-back	0.0	0.0	0.519	r	BL
45.632	2.0	2-back	1.0	0.0	0.222	f	BR
47.632	2.0	2-back	0.0	1.0	0.317	s	BR
49.632	2.0	2-back	0.0	0.0	0.363	v	TL
51.632	2.0	2-back	0.0	0.0	0.439	n	TR
53.632	2.0	2-back	1.0	1.0	0.365	p	TL
55.632	2.0	2-back	0.0	1.0	0.305	s	BL
57.632	2.0	2-back	0.0	1.0	0.57	g	BR
59.632	2.0	2-back	1.0	1.0	0.133	f	BL
61.632	2.0	2-back	0.0	1.0	0.357	r	TR
63.632	2.0	2-back	0.0	0.0	0.409	s	TL
65.632	2.0	2-back	0.0	1.0	0.505	z	BL
67.632	2.0	2-back	1.0	0.0	0.51	c	TL
69.632	2.0	2-back	0.0	0.0	0.501	r	BR
71.632	2.0	2-back	0.0	1.0	0.179	v	TR
73.632	2.0	2-back	1.0	0.0	0.351	l	BR
75.632	2.0	2-back	1.0	0.0	0.212	c	TR
77.632	2.0	2-back	0.0	0.0	0.279	s	BL
79.632	2.0	2-back	0.0	1.0	0.171	t	TL
81.632	2.0	2-back	0.0	1.0	0.326	r	TR
83.632	2.0	2-back	0.0	0.0	0.339	z	BL
85.632	2.0	2-back	1.0	0.0	0.241	l	TR
87.632	2.0	2-back	1.0	0.0	0.301	x	BL
89.632	2.0	2-back	0.0	0.0	0.372	f	BR
91.632	2.0	2-back	0.0	1.0	0.436	p	TR
93.632	2.0	2-back	1.0	0.0	0.388	g	BR
95.632	2.0	2-back	0.0	1.0	0.277	t	BL
97.632	2.0	2-back	1.0	0.0	0.396	z	BR
103.682	2.0	baseline	n/a	1.0	n/a	blackcross.bmp	n/a
105.732	2.0	baseline	n/a	1.0	n/a	blackcross.bmp	n/a
107.782	2.0	baseline	1.0	1.0	0.367	redcross.bmp	n/a
109.832	2.0	baseline	1.0	1.0	0.395	redcross.bmp	n/a
111.882	2.0	baseline	n/a	1.0	n/a	blackcross.bmp	n/a
113.931	2.0	baseline	n/a	1.0	n/a	blackcross.bmp	n/a
115.981	2.0	baseline	n/a	1.0	n/a	blackcross.bmp	n/a
118.031	2.0	baseline	1.0	1.0	0.364	redcross.bmp	n/a
120.081	2.0	baseline	n/a	1.0	n/a	blackcross.bmp	n/a
122.131	2.0	baseline	1.0	1.0	0.409	redcross.bmp	n/a
124.181	2.0	baseline	n/a	1.0	n/a	blackcross.bmp	n/a
126.231	2.0	baseline	n/a	1.0	n/a	blackcross.bmp	n/a
132.281	1.8	no_response	n/a	1.0	n/a	l	TR
134.081	2.0	1-back	1.0	1.0	0.523	x	TR
136.081	2.0	1-back	0.0	1.0	0.501	l	BL
138.081	2.0	1-back	1.0	1.0	0.466	s	BL
140.081	2.0	1-back	0.0	1.0	0.485	g	TL
142.081	2.0	1-back	0.0	1.0	0.51	r	BR
144.081	2.0	1-back	0.0	0.0	0.602	s	TL
146.081	2.0	1-back	0.0	1.0	0.427	z	BL
148.081	2.0	1-back	0.0	1.0	0.547	t	TR
150.081	2.0	1-back	1.0	0.0	0.456	x	TR
152.081	2.0	1-back	0.0	1.0	0.401	n	BR
154.081	2.0	1-back	0.0	1.0	0.465	l	TL
156.081	2.0	1-back	1.0	1.0	0.622	g	TL
158.081	2.0	1-back	0.0	1.0	0.422	r	BR
160.081	2.0	1-back	1.0	1.0	0.46	p	BR
162.081	2.0	1-back	0.0	1.0	0.409	z	TR
164.081	2.0	1-back	0.0	0.0	0.474	r	BL
166.081	2.0	1-back	1.0	0.0	0.159	x	BL
168.081	2.0	1-back	0.0	1.0	0.419	p	TR
170.081	2.0	1-back	0.0	0.0	0.284	c	BL
172.081	2.0	1-back	0.0	1.0	0.341	f	TR
174.081	2.0	1-back	1.0	0.0	0.404	l	TR
176.081	2.0	1-back	1.0	1.0	0.467	t	TR
178.081	2.0	1-back	0.0	1.0	0.511	f	TL
180.081	2.0	1-back	0.0	1.0	0.555	r	BL
182.081	2.0	1-back	1.0	1.0	0.173	s	BL
184.081	2.0	1-back	0.0	1.0	0.333	f	TR
186.08	2.0	1-back	0.0	1.0	0.272	c	BR
188.08	2.0	1-back	1.0	1.0	0.274	z	BR
190.08	2.0	1-back	0.0	1.0	0.431	v	BL
192.08	2.0	1-back	0.0	1.0	0.348	p	TL
194.08	2.0	1-back	1.0	0.0	0.355	t	TL
196.08	2.0	1-back	0.0	1.0	0.529	c	BL
198.08	2.0	1-back	0.0	1.0	0.351	p	BR
200.08	2.0	1-back	0.0	0.0	0.38	v	TL
202.08	2.0	1-back	1.0	0.0	0.168	n	TL
204.08	2.0	1-back	0.0	1.0	0.367	s	BR
206.08	2.0	1-back	1.0	0.0	0.348	z	BR
208.08	2.0	1-back	0.0	1.0	0.669	v	BL
210.08	2.0	1-back	0.0	1.0	0.608	n	BR
212.08	2.0	1-back	0.0	1.0	0.499	t	TL
214.08	2.0	1-back	1.0	1.0	0.476	g	TL
216.08	2.0	1-back	0.0	1.0	0.573	x	TR
218.08	2.0	1-back	1.0	1.0	0.601	g	TR
220.08	2.0	1-back	0.0	1.0	0.462	c	TL
222.08	2.0	1-back	0.0	1.0	0.457	v	BL
224.08	2.0	1-back	0.0	1.0	0.557	f	BR
226.08	2.0	1-back	1.0	1.0	0.365	n	BR
232.13	2.0	baseline	n/a	1.0	n/a	blackcross.bmp	n/a
234.18	2.0	baseline	n/a	1.0	n/a	blackcross.bmp	n/a
236.23	2.0	baseline	1.0	1.0	0.366	redcross.bmp	n/a
238.28	2.0	baseline	1.0	1.0	0.412	redcross.bmp	n/a
240.33	2.0	baseline	n/a	1.0	n/a	blackcross.bmp	n/a
242.38	2.0	baseline	n/a	1.0	n/a	blackcross.bmp	n/a
244.43	2.0	baseline	n/a	1.0	n/a	blackcross.bmp	n/a
246.48	2.0	baseline	n/a	1.0	n/a	blackcross.bmp	n/a
248.53	2.0	baseline	1.0	1.0	0.349	redcross.bmp	n/a
250.58	2.0	baseline	n/a	1.0	n/a	blackcross.bmp	n/a
252.63	2.0	baseline	1.0	1.0	0.341	redcross.bmp	n/a
254.68	2.0	baseline	n/a	1.0	n/a	blackcross.bmp	n/a
