onset	duration	trial_type	correct_response	accuracy	response_time	stimulus	position
4.033	1.8	no_response	n/a	1.0	n/a	v	TR
5.839	2.0	1-back	1.0	0.0	0.873	v	BL
7.862	2.0	1-back	0.0	0.0	n/a	p	TR
9.885	2.0	1-back	0.0	1.0	0.931	g	BL
11.908	2.0	1-back	1.0	0.0	0.915	g	TL
13.931	2.0	1-back	0.0	1.0	0.763	z	BR
15.954	2.0	1-back	0.0	1.0	0.648	l	TL
17.977	2.0	1-back	0.0	1.0	0.621	t	BL
20.0	2.0	1-back	1.0	1.0	0.772	t	TR
22.023	2.0	1-back	0.0	1.0	0.575	s	BR
24.046	2.0	1-back	0.0	1.0	0.593	l	TL
26.069	2.0	1-back	0.0	1.0	0.624	x	BR
28.092	2.0	1-back	1.0	1.0	0.567	x	TR
30.114	2.0	1-back	1.0	1.0	0.775	x	TL
32.137	2.0	1-back	0.0	1.0	0.579	s	TR
34.16	2.0	1-back	1.0	1.0	0.692	s	BL
36.183	2.0	1-back	0.0	1.0	0.514	n	TR
38.206	2.0	1-back	0.0	1.0	0.532	r	TL
40.229	2.0	1-back	0.0	1.0	1.136	s	TR
42.252	2.0	1-back	0.0	1.0	1.03	t	BL
44.275	2.0	1-back	1.0	1.0	0.793	t	TR
46.298	2.0	1-back	0.0	1.0	0.573	l	BR
48.321	2.0	1-back	0.0	1.0	0.529	r	BL
50.344	2.0	1-back	0.0	1.0	0.486	f	TL
52.367	2.0	1-back	1.0	0.0	0.464	f	BL
54.39	2.0	1-back	0.0	1.0	0.391	z	BR
56.413	2.0	1-back	1.0	1.0	0.583	z	BL
58.436	2.0	1-back	0.0	1.0	0.382	c	TL
60.459	2.0	1-back	1.0	1.0	0.462	c	TR
62.482	2.0	1-back	0.0	1.0	0.486	p	BR
64.505	2.0	1-back	1.0	1.0	0.5	p	BL
66.528	2.0	1-back	0.0	1.0	0.416	n	TL
68.551	2.0	1-back	1.0	1.0	0.319	n	TR
70.574	2.0	1-back	0.0	1.0	0.322	f	BL
72.597	2.0	1-back	1.0	1.0	0.452	f	BR
74.62	2.0	1-back	0.0	1.0	0.418	l	TL
76.643	2.0	1-back	0.0	0.0	0.504	r	BR
78.666	2.0	1-back	1.0	0.0	0.445	r	TL
80.689	2.0	1-back	0.0	0.0	0.556	z	BR
82.712	2.0	1-back	0.0	1.0	0.263	n	BL
84.735	2.0	1-back	0.0	1.0	0.255	c	TL
86.758	2.0	1-back	1.0	1.0	0.669	c	TR
88.781	2.0	1-back	0.0	1.0	0.327	v	BR
90.803	2.0	1-back	1.0	1.0	0.388	v	TL
92.826	2.0	1-back	0.0	1.0	0.377	x	TR
94.849	2.0	1-back	0.0	1.0	0.56	g	BR
96.872	2.0	1-back	0.0	1.0	0.951	p	BL
98.895	2.0	1-back	0.0	1.0	1.191	g	BR
104.949	2.0	baseline	n/a	1.0	n/a	blackcross.bmp	n/a
107.006	2.0	baseline	n/a	1.0	n/a	blackcross.bmp	n/a
109.062	2.0	baseline	1.0	1.0	0.357	redcross.bmp	n/a
111.119	2.0	baseline	1.0	1.0	0.38	redcross.bmp	n/a
113.175	2.0	baseline	n/a	1.0	n/a	blackcross.bmp	n/a
115.231	2.0	baseline	n/a	1.0	n/a	blackcross.bmp	n/a
117.288	2.0	baseline	n/a	1.0	n/a	blackcross.bmp	n/a
119.344	2.0	baseline	1.0	1.0	0.41	redcross.bmp	n/a
121.401	2.0	baseline	n/a	1.0	n/a	blackcross.bmp	n/a
123.457	2.0	baseline	n/a	1.0	n/a	blackcross.bmp	n/a
125.513	2.0	baseline	1.0	1.0	0.387	redcross.bmp	n/a
127.57	2.0	baseline	n/a	1.0	n/a	blackcross.bmp	n/a
133.62	1.8	no_response	n/a	1.0	n/a	c	TR
135.426	1.8	no_response	n/a	1.0	n/a	g	BL
137.231	2.0	2-back	1.0	0.0	0.579	c	BL
139.254	2.0	2-back	0.0	0.0	0.769	p	TR
141.277	2.0	2-back	0.0	1.0	0.448	v	TL
143.3	2.0	2-back	1.0	0.0	1.06	p	TL
145.323	2.0	2-back	0.0	1.0	0.702	s	BL
147.346	2.0	2-back	0.0	1.0	0.73	x	TR
149.369	2.0	2-back	1.0	1.0	0.589	s	TR
151.392	2.0	2-back	1.0	1.0	0.71	x	TL
153.415	2.0	2-back	0.0	1.0	0.61	n	BR
155.438	2.0	2-back	0.0	0.0	0.724	f	BL
157.461	2.0	2-back	1.0	0.0	0.547	n	TL
159.484	2.0	2-back	0.0	0.0	0.827	t	TL
161.507	2.0	2-back	0.0	1.0	0.609	l	TR
163.53	2.0	2-back	0.0	1.0	1.021	r	BR
165.553	2.0	2-back	1.0	1.0	0.919	l	TL
167.576	2.0	2-back	0.0	1.0	0.924	z	TL
169.599	2.0	2-back	0.0	0.0	0.862	v	BL
171.622	2.0	2-back	0.0	1.0	0.411	t	BR
173.645	2.0	2-back	0.0	1.0	0.856	g	TL
175.668	2.0	2-back	1.0	0.0	0.755	t	BL
177.691	2.0	2-back	0.0	0.0	0.374	f	BR
179.714	2.0	2-back	0.0	1.0	0.387	r	BR
181.737	2.0	2-back	1.0	1.0	0.893	f	TR
183.76	2.0	2-back	0.0	1.0	0.746	z	BL
185.783	2.0	2-back	0.0	0.0	0.573	c	BR
187.806	2.0	2-back	0.0	1.0	0.429	g	TR
189.828	2.0	2-back	1.0	0.0	0.887	c	BL
191.851	2.0	2-back	0.0	0.0	0.426	p	BR
193.874	2.0	2-back	0.0	1.0	0.434	v	BR
195.897	2.0	2-back	1.0	0.0	0.815	p	TR
197.92	2.0	2-back	0.0	0.0	0.602	s	TL
199.943	2.0	2-back	0.0	1.0	0.412	t	BR
201.966	2.0	2-back	1.0	0.0	0.677	s	TR
203.989	2.0	2-back	0.0	0.0	0.343	r	TL
206.012	2.0	2-back	0.0	1.0	0.354	z	BL
208.035	2.0	2-back	1.0	1.0	0.936	r	TR
210.058	2.0	2-back	1.0	1.0	0.855	z	BR
212.081	2.0	2-back	0.0	1.0	0.736	n	TL
214.104	2.0	2-back	0.0	1.0	0.823	g	TR
216.127	2.0	2-back	1.0	0.0	0.646	n	BL
218.15	2.0	2-back	0.0	0.0	0.45	x	BR
220.173	2.0	2-back	0.0	1.0	0.35	v	TR
222.196	2.0	2-back	1.0	1.0	0.635	x	BL
224.219	2.0	2-back	0.0	1.0	0.6	l	BL
226.242	2.0	2-back	0.0	0.0	0.514	f	TL
228.265	2.0	2-back	1.0	0.0	0.382	l	BR
234.319	2.0	baseline	n/a	1.0	n/a	blackcross.bmp	n/a
236.375	2.0	baseline	1.0	0.0	0.511	redcross.bmp	n/a
238.432	2.0	baseline	n/a	1.0	n/a	blackcross.bmp	n/a
240.488	2.0	baseline	1.0	1.0	0.53	redcross.bmp	n/a
242.545	2.0	baseline	n/a	1.0	n/a	blackcross.bmp	n/a
244.601	2.0	baseline	n/a	1.0	n/a	blackcross.bmp	n/a
246.657	2.0	baseline	n/a	1.0	n/a	blackcross.bmp	n/a
248.714	2.0	baseline	1.0	1.0	0.349	redcross.bmp	n/a
250.77	2.0	baseline	n/a	1.0	n/a	blackcross.bmp	n/a
252.827	2.0	baseline	1.0	1.0	0.417	redcross.bmp	n/a
254.883	2.0	baseline	n/a	1.0	n/a	blackcross.bmp	n/a
256.939	2.0	baseline	n/a	1.0	n/a	blackcross.bmp	n/a
