onset	duration	trial_type	correct_response	accuracy	response_time	stimulus	position
4.026	1.8	no_response	n/a	1.0	n/a	v	TR
5.825	2.0	1-back	1.0	1.0	0.77	v	BL
7.841	2.0	1-back	0.0	1.0	0.793	p	TR
9.857	2.0	1-back	0.0	1.0	0.817	g	BL
11.872	2.0	1-back	1.0	1.0	0.692	g	TL
13.888	2.0	1-back	0.0	1.0	0.625	z	BR
15.904	2.0	1-back	0.0	0.0	0.678	l	TL
17.92	2.0	1-back	0.0	1.0	0.577	t	BL
19.935	2.0	1-back	1.0	1.0	0.761	t	TR
21.951	2.0	1-back	0.0	1.0	0.803	s	BR
23.967	2.0	1-back	0.0	1.0	0.752	l	TL
25.983	2.0	1-back	0.0	1.0	0.78	x	BR
27.998	2.0	1-back	1.0	1.0	0.827	x	TR
30.014	2.0	1-back	1.0	0.0	0.766	x	TL
32.03	2.0	1-back	0.0	1.0	0.763	s	TR
34.046	2.0	1-back	1.0	0.0	0.751	s	BL
36.061	2.0	1-back	0.0	0.0	n/a	n	TR
38.077	2.0	1-back	0.0	1.0	0.981	r	TL
40.093	2.0	1-back	0.0	0.0	0.792	s	TR
42.108	2.0	1-back	0.0	1.0	0.535	t	BL
44.124	2.0	1-back	1.0	1.0	0.846	t	TR
46.14	2.0	1-back	0.0	1.0	0.659	l	BR
48.156	2.0	1-back	0.0	1.0	0.63	r	BL
50.171	2.0	1-back	0.0	1.0	0.904	f	TL
52.187	2.0	1-back	1.0	1.0	1.028	f	BL
54.203	2.0	1-back	0.0	1.0	0.768	z	BR
56.219	2.0	1-back	1.0	0.0	0.799	z	BL
58.234	2.0	1-back	0.0	1.0	0.758	c	TL
60.25	2.0	1-back	1.0	1.0	0.688	c	TR
62.266	2.0	1-back	0.0	1.0	0.711	p	BR
64.282	2.0	1-back	1.0	1.0	0.965	p	BL
66.297	2.0	1-back	0.0	1.0	0.774	n	TL
68.313	2.0	1-back	1.0	0.0	0.66	n	TR
70.329	2.0	1-back	0.0	0.0	1.03	f	BL
72.344	2.0	1-back	1.0	0.0	0.498	f	BR
74.36	2.0	1-back	0.0	1.0	0.625	l	TL
76.376	2.0	1-back	0.0	1.0	0.746	r	BR
78.392	2.0	1-back	1.0	0.0	0.637	r	TL
80.407	2.0	1-back	0.0	0.0	0.703	z	BR
82.423	2.0	1-back	0.0	1.0	0.495	n	BL
84.439	2.0	1-back	0.0	1.0	0.795	c	TL
86.455	2.0	1-back	1.0	0.0	0.638	c	TR
88.47	2.0	1-back	0.0	1.0	0.621	v	BR
90.486	2.0	1-back	1.0	1.0	0.868	v	TL
92.502	2.0	1-back	0.0	1.0	0.64	x	TR
94.518	2.0	1-back	0.0	0.0	n/a	g	BR
96.533	2.0	1-back	0.0	0.0	n/a	p	BL
98.549	2.0	1-back	0.0	1.0	0.711	g	BR
104.613	2.0	baseline	n/a	1.0	n/a	blackcross.bmp	n/a
106.662	2.0	baseline	n/a	1.0	n/a	blackcross.bmp	n/a
108.711	2.0	baseline	1.0	1.0	0.43	redcross.bmp	n/a
110.76	2.0	baseline	1.0	0.0	n/a	redcross.bmp	n/a
112.809	2.0	baseline	n/a	1.0	n/a	blackcross.bmp	n/a
114.858	2.0	baseline	n/a	1.0	n/a	blackcross.bmp	n/a
116.907	2.0	baseline	n/a	1.0	n/a	blackcross.bmp	n/a
118.956	2.0	baseline	1.0	1.0	0.427	redcross.bmp	n/a
121.005	2.0	baseline	n/a	1.0	n/a	blackcross.bmp	n/a
123.054	2.0	baseline	n/a	1.0	n/a	blackcross.bmp	n/a
125.103	2.0	baseline	1.0	1.0	0.504	redcross.bmp	n/a
127.152	2.0	baseline	n/a	1.0	n/a	blackcross.bmp	n/a
133.2	1.8	no_response	n/a	1.0	n/a	c	TR
134.999	1.8	no_response	n/a	1.0	n/a	g	BL
136.798	2.0	2-back	1.0	0.0	0.67	c	BL
138.814	2.0	2-back	0.0	0.0	n/a	p	TR
140.829	2.0	2-back	0.0	1.0	0.829	v	TL
142.845	2.0	2-back	1.0	1.0	0.826	p	TL
144.861	2.0	2-back	0.0	1.0	0.825	s	BL
146.877	2.0	2-back	0.0	1.0	0.587	x	TR
148.892	2.0	2-back	1.0	0.0	0.478	s	TR
150.908	2.0	2-back	1.0	1.0	0.584	x	TL
152.924	2.0	2-back	0.0	1.0	0.335	n	BR
154.94	2.0	2-back	0.0	0.0	0.468	f	BL
156.955	2.0	2-back	1.0	0.0	0.415	n	TL
158.971	2.0	2-back	0.0	1.0	0.541	t	TL
160.987	2.0	2-back	0.0	1.0	0.633	l	TR
163.003	2.0	2-back	0.0	0.0	0.652	r	BR
165.018	2.0	2-back	1.0	0.0	0.684	l	TL
167.034	2.0	2-back	0.0	0.0	0.67	z	TL
169.05	2.0	2-back	0.0	1.0	0.651	v	BL
171.065	2.0	2-back	0.0	1.0	0.831	t	BR
173.081	2.0	2-back	0.0	1.0	0.84	g	TL
175.097	2.0	2-back	1.0	0.0	0.718	t	BL
177.113	2.0	2-back	0.0	1.0	0.683	f	BR
179.128	2.0	2-back	0.0	1.0	0.648	r	BR
181.144	2.0	2-back	1.0	0.0	0.533	f	TR
183.16	2.0	2-back	0.0	1.0	0.505	z	BL
185.176	2.0	2-back	0.0	0.0	0.877	c	BR
187.191	2.0	2-back	0.0	1.0	0.568	g	TR
189.207	2.0	2-back	1.0	0.0	0.684	c	BL
191.223	2.0	2-back	0.0	1.0	0.683	p	BR
193.238	2.0	2-back	0.0	1.0	0.497	v	BR
195.254	2.0	2-back	1.0	0.0	0.845	p	TR
197.27	2.0	2-back	0.0	1.0	0.726	s	TL
199.286	2.0	2-back	0.0	0.0	0.569	t	BR
201.301	2.0	2-back	1.0	0.0	0.476	s	TR
203.317	2.0	2-back	0.0	1.0	0.593	r	TL
205.333	2.0	2-back	0.0	0.0	0.522	z	BL
207.349	2.0	2-back	1.0	0.0	0.436	r	TR
209.364	2.0	2-back	1.0	1.0	0.591	z	BR
211.38	2.0	2-back	0.0	1.0	0.683	n	TL
213.396	2.0	2-back	0.0	1.0	0.583	g	TR
215.412	2.0	2-back	1.0	0.0	0.761	n	BL
217.427	2.0	2-back	0.0	0.0	0.72	x	BR
219.443	2.0	2-back	0.0	1.0	0.65	v	TR
221.459	2.0	2-back	1.0	0.0	1.006	x	BL
223.474	2.0	2-back	0.0	1.0	1.165	l	BL
225.49	2.0	2-back	0.0	0.0	n/a	f	TL
227.506	2.0	2-back	1.0	1.0	0.891	l	BR
233.57	2.0	baseline	n/a	1.0	n/a	blackcross.bmp	n/a
235.619	2.0	baseline	1.0	1.0	0.75	redcross.bmp	n/a
237.668	2.0	baseline	n/a	1.0	n/a	blackcross.bmp	n/a
239.717	2.0	baseline	1.0	1.0	0.555	redcross.bmp	n/a
241.766	2.0	baseline	n/a	1.0	n/a	blackcross.bmp	n/a
243.815	2.0	baseline	n/a	1.0	n/a	blackcross.bmp	n/a
245.864	2.0	baseline	n/a	1.0	n/a	blackcross.bmp	n/a
247.913	2.0	baseline	1.0	1.0	0.583	redcross.bmp	n/a
249.962	2.0	baseline	n/a	1.0	n/a	blackcross.bmp	n/a
252.011	2.0	baseline	1.0	1.0	0.474	redcross.bmp	n/a
254.06	2.0	baseline	n/a	1.0	n/a	blackcross.bmp	n/a
256.109	2.0	baseline	n/a	1.0	n/a	blackcross.bmp	n/a
