onset	duration	trial_type	correct_response	accuracy	response_time	stimulus	position
4.026	1.8	no_response	n/a	1.0	n/a	c	BL
5.825	1.8	no_response	n/a	1.0	n/a	l	TR
7.625	2.0	2-back	1.0	1.0	0.497	v	BL
9.624	2.0	2-back	1.0	0.0	0.519	p	TR
11.623	2.0	2-back	0.0	1.0	0.704	r	TL
13.622	2.0	2-back	0.0	0.0	0.792	t	BR
15.621	2.0	2-back	1.0	0.0	0.565	n	TL
17.62	2.0	2-back	0.0	1.0	0.954	s	TR
19.619	2.0	2-back	0.0	1.0	0.806	f	BL
21.618	2.0	2-back	1.0	1.0	0.887	x	TR
23.617	2.0	2-back	0.0	1.0	0.658	v	BR
25.616	2.0	2-back	0.0	1.0	0.81	p	TL
27.615	2.0	2-back	1.0	1.0	0.809	f	BR
29.614	2.0	2-back	1.0	1.0	0.511	n	TL
31.613	2.0	2-back	0.0	1.0	0.921	x	TR
33.613	2.0	2-back	1.0	1.0	0.848	t	TL
35.612	2.0	2-back	0.0	1.0	0.767	s	BL
37.611	2.0	2-back	0.0	0.0	0.406	l	TR
39.61	2.0	2-back	1.0	0.0	0.459	f	BL
41.609	2.0	2-back	1.0	0.0	0.73	c	TR
43.608	2.0	2-back	0.0	1.0	0.866	r	TL
45.607	2.0	2-back	1.0	1.0	0.806	g	TR
47.606	2.0	2-back	0.0	1.0	0.777	s	BL
49.605	2.0	2-back	0.0	1.0	0.846	r	BR
51.604	2.0	2-back	1.0	1.0	0.595	v	BL
53.603	2.0	2-back	0.0	1.0	0.519	p	BL
55.602	2.0	2-back	0.0	1.0	0.589	t	TL
57.601	2.0	2-back	1.0	1.0	0.733	x	BL
59.6	2.0	2-back	0.0	1.0	0.578	z	BR
61.599	2.0	2-back	0.0	0.0	0.814	t	TR
63.599	2.0	2-back	0.0	1.0	0.545	g	TL
65.598	2.0	2-back	1.0	0.0	0.782	c	TR
67.597	2.0	2-back	0.0	1.0	0.821	p	BL
69.596	2.0	2-back	0.0	1.0	0.85	s	BR
71.595	2.0	2-back	0.0	1.0	0.692	v	TL
73.594	2.0	2-back	1.0	1.0	0.799	n	BR
75.593	2.0	2-back	0.0	1.0	0.694	c	BL
77.592	2.0	2-back	0.0	1.0	0.659	l	TL
79.591	2.0	2-back	0.0	0.0	0.856	x	BR
81.59	2.0	2-back	1.0	0.0	0.643	z	TL
83.589	2.0	2-back	0.0	1.0	0.866	g	TR
85.588	2.0	2-back	0.0	1.0	0.857	f	BR
87.587	2.0	2-back	0.0	1.0	0.672	z	TL
89.586	2.0	2-back	1.0	0.0	0.715	l	BR
91.585	2.0	2-back	0.0	0.0	0.917	r	TR
93.585	2.0	2-back	1.0	0.0	0.694	z	BR
95.584	2.0	2-back	0.0	1.0	0.792	n	BL
97.583	2.0	2-back	1.0	0.0	0.625	g	BR
103.63	2.0	baseline	n/a	1.0	n/a	blackcross.bmp	n/a
105.679	2.0	baseline	n/a	1.0	n/a	blackcross.bmp	n/a
107.728	2.0	baseline	n/a	1.0	n/a	blackcross.bmp	n/a
109.777	2.0	baseline	1.0	1.0	0.351	redcross.bmp	n/a
111.826	2.0	baseline	n/a	1.0	n/a	blackcross.bmp	n/a
113.875	2.0	baseline	1.0	1.0	0.385	redcross.bmp	n/a
115.924	2.0	baseline	n/a	1.0	n/a	blackcross.bmp	n/a
117.973	2.0	baseline	n/a	1.0	n/a	blackcross.bmp	n/a
120.022	2.0	baseline	1.0	1.0	0.324	redcross.bmp	n/a
122.071	2.0	baseline	n/a	1.0	n/a	blackcross.bmp	n/a
124.12	2.0	baseline	n/a	1.0	n/a	blackcross.bmp	n/a
126.169	2.0	baseline	1.0	1.0	0.38	redcross.bmp	n/a
132.216	1.8	no_response	n/a	1.0	n/a	p	TR
134.016	2.0	1-back	0.0	1.0	0.53	f	BL
136.015	2.0	1-back	1.0	1.0	0.676	n	BL
138.014	2.0	1-back	0.0	1.0	0.648	x	TR
140.013	2.0	1-back	0.0	1.0	0.504	c	TL
142.012	2.0	1-back	1.0	1.0	0.515	p	TL
144.011	2.0	1-back	0.0	1.0	0.569	n	BL
146.01	2.0	1-back	0.0	1.0	0.572	c	TR
148.009	2.0	1-back	1.0	1.0	0.521	g	TR
150.008	2.0	1-back	0.0	1.0	0.609	n	TL
152.007	2.0	1-back	0.0	1.0	0.533	s	BR
154.006	2.0	1-back	0.0	1.0	0.49	x	BL
156.005	2.0	1-back	0.0	1.0	0.524	t	TL
158.004	2.0	1-back	1.0	1.0	0.648	g	TL
160.003	2.0	1-back	0.0	1.0	0.541	p	BR
162.003	2.0	1-back	0.0	1.0	0.525	c	TL
164.002	2.0	1-back	1.0	1.0	0.449	r	TL
166.001	2.0	1-back	0.0	1.0	0.505	t	BL
168.0	2.0	1-back	1.0	0.0	0.495	v	BL
169.999	2.0	1-back	0.0	1.0	0.442	g	BR
171.998	2.0	1-back	0.0	1.0	0.606	p	TL
173.997	2.0	1-back	0.0	1.0	0.895	x	BR
175.996	2.0	1-back	1.0	1.0	0.544	z	BR
177.995	2.0	1-back	0.0	1.0	0.491	l	TR
179.994	2.0	1-back	1.0	1.0	0.558	v	TR
181.993	2.0	1-back	0.0	1.0	0.517	n	BR
183.992	2.0	1-back	0.0	1.0	0.586	r	BL
185.991	2.0	1-back	1.0	1.0	0.451	s	BL
187.99	2.0	1-back	0.0	1.0	0.505	z	TR
189.989	2.0	1-back	0.0	1.0	0.506	l	TL
191.989	2.0	1-back	0.0	1.0	0.483	g	BR
193.988	2.0	1-back	1.0	1.0	0.615	f	BR
195.987	2.0	1-back	0.0	1.0	0.454	t	TR
197.986	2.0	1-back	0.0	1.0	0.654	z	TL
199.985	2.0	1-back	1.0	1.0	0.446	l	TL
201.984	2.0	1-back	0.0	1.0	0.49	f	BL
203.983	2.0	1-back	0.0	1.0	0.548	t	TR
205.982	2.0	1-back	1.0	0.0	0.467	r	TR
207.981	2.0	1-back	0.0	1.0	0.276	l	BR
209.98	2.0	1-back	1.0	1.0	0.597	z	BR
211.979	2.0	1-back	0.0	1.0	0.571	r	TR
213.978	2.0	1-back	1.0	1.0	0.455	v	TR
215.977	2.0	1-back	0.0	1.0	0.659	s	BL
217.976	2.0	1-back	1.0	1.0	0.686	f	BL
219.976	2.0	1-back	0.0	1.0	0.6	v	TL
221.975	2.0	1-back	0.0	1.0	0.572	x	BR
223.974	2.0	1-back	1.0	1.0	0.708	c	BR
225.973	2.0	1-back	0.0	1.0	0.656	s	BL
232.02	2.0	baseline	n/a	1.0	n/a	blackcross.bmp	n/a
234.069	2.0	baseline	n/a	1.0	n/a	blackcross.bmp	n/a
236.118	2.0	baseline	1.0	1.0	0.369	redcross.bmp	n/a
238.167	2.0	baseline	1.0	1.0	0.422	redcross.bmp	n/a
240.216	2.0	baseline	n/a	1.0	n/a	blackcross.bmp	n/a
242.265	2.0	baseline	n/a	1.0	n/a	blackcross.bmp	n/a
244.314	2.0	baseline	1.0	1.0	0.347	redcross.bmp	n/a
246.363	2.0	baseline	n/a	1.0	n/a	blackcross.bmp	n/a
248.412	2.0	baseline	n/a	1.0	n/a	blackcross.bmp	n/a
250.461	2.0	baseline	n/a	1.0	n/a	blackcross.bmp	n/a
252.51	2.0	baseline	1.0	1.0	0.425	redcross.bmp	n/a
254.559	2.0	baseline	n/a	1.0	n/a	blackcross.bmp	n/a
