onset	duration	trial_type	correct_response	accuracy	response_time	stimulus	position
4.025	1.8	no_response	n/a	1.0	n/a	v	TR
5.825	2.0	1-back	1.0	0.0	0.492	v	BL
7.84	2.0	1-back	0.0	1.0	0.695	p	TR
9.856	2.0	1-back	0.0	1.0	0.785	g	BL
11.872	2.0	1-back	1.0	0.0	0.701	g	TL
13.887	2.0	1-back	0.0	1.0	0.733	z	BR
15.903	2.0	1-back	0.0	1.0	0.71	l	TL
17.919	2.0	1-back	0.0	1.0	0.609	t	BL
19.935	2.0	1-back	1.0	0.0	0.737	t	TR
21.95	2.0	1-back	0.0	1.0	0.797	s	BR
23.966	2.0	1-back	0.0	1.0	0.985	l	TL
25.982	2.0	1-back	0.0	1.0	0.775	x	BR
27.998	2.0	1-back	1.0	0.0	0.821	x	TR
30.013	2.0	1-back	1.0	1.0	0.622	x	TL
32.029	2.0	1-back	0.0	1.0	0.48	s	TR
34.045	2.0	1-back	1.0	0.0	0.474	s	BL
36.06	2.0	1-back	0.0	1.0	0.385	n	TR
38.076	2.0	1-back	0.0	1.0	0.578	r	TL
40.092	2.0	1-back	0.0	1.0	0.625	s	TR
42.108	2.0	1-back	0.0	1.0	0.438	t	BL
44.123	2.0	1-back	1.0	0.0	0.396	t	TR
46.139	2.0	1-back	0.0	1.0	0.358	l	BR
48.155	2.0	1-back	0.0	1.0	0.353	r	BL
50.171	2.0	1-back	0.0	1.0	0.384	f	TL
52.186	2.0	1-back	1.0	0.0	0.428	f	BL
54.202	2.0	1-back	0.0	1.0	0.321	z	BR
56.218	2.0	1-back	1.0	0.0	0.616	z	BL
58.233	2.0	1-back	0.0	1.0	0.518	c	TL
60.249	2.0	1-back	1.0	1.0	0.675	c	TR
62.265	2.0	1-back	0.0	1.0	0.458	p	BR
64.281	2.0	1-back	1.0	0.0	0.587	p	BL
66.296	2.0	1-back	0.0	1.0	0.396	n	TL
68.312	2.0	1-back	1.0	1.0	0.638	n	TR
70.328	2.0	1-back	0.0	1.0	0.374	f	BL
72.344	2.0	1-back	1.0	0.0	0.368	f	BR
74.359	2.0	1-back	0.0	1.0	0.286	l	TL
76.375	2.0	1-back	0.0	1.0	0.392	r	BR
78.391	2.0	1-back	1.0	1.0	0.812	r	TL
80.406	2.0	1-back	0.0	1.0	0.865	z	BR
82.422	2.0	1-back	0.0	1.0	0.732	n	BL
84.438	2.0	1-back	0.0	1.0	0.786	c	TL
86.454	2.0	1-back	1.0	1.0	0.748	c	TR
88.469	2.0	1-back	0.0	1.0	0.569	v	BR
90.485	2.0	1-back	1.0	0.0	0.54	v	TL
92.501	2.0	1-back	0.0	1.0	0.424	x	TR
94.516	2.0	1-back	0.0	1.0	0.611	g	BR
96.532	2.0	1-back	0.0	1.0	0.637	p	BL
98.548	2.0	1-back	0.0	1.0	0.627	g	BR
104.611	2.0	baseline	n/a	1.0	n/a	blackcross.bmp	n/a
106.661	2.0	baseline	n/a	1.0	n/a	blackcross.bmp	n/a
108.71	2.0	baseline	1.0	1.0	0.336	redcross.bmp	n/a
110.759	2.0	baseline	1.0	1.0	0.483	redcross.bmp	n/a
112.808	2.0	baseline	n/a	1.0	n/a	blackcross.bmp	n/a
114.857	2.0	baseline	n/a	1.0	n/a	blackcross.bmp	n/a
116.906	2.0	baseline	n/a	1.0	n/a	blackcross.bmp	n/a
118.955	2.0	baseline	1.0	1.0	0.361	redcross.bmp	n/a
121.004	2.0	baseline	n/a	1.0	n/a	blackcross.bmp	n/a
123.053	2.0	baseline	n/a	1.0	n/a	blackcross.bmp	n/a
125.102	2.0	baseline	1.0	1.0	0.44	redcross.bmp	n/a
127.151	2.0	baseline	n/a	1.0	n/a	blackcross.bmp	n/a
133.198	1.8	no_response	n/a	1.0	n/a	c	TR
134.998	1.8	no_response	n/a	1.0	n/a	g	BL
136.797	2.0	2-back	1.0	0.0	0.217	c	BL
138.812	2.0	2-back	0.0	1.0	0.543	p	TR
140.828	2.0	2-back	0.0	1.0	0.561	v	TL
142.844	2.0	2-back	1.0	1.0	0.643	p	TL
144.86	2.0	2-back	0.0	1.0	0.467	s	BL
146.875	2.0	2-back	0.0	1.0	0.605	x	TR
148.891	2.0	2-back	1.0	0.0	0.705	s	TR
150.907	2.0	2-back	1.0	0.0	0.499	x	TL
152.923	2.0	2-back	0.0	1.0	0.636	n	BR
154.938	2.0	2-back	0.0	1.0	0.654	f	BL
156.954	2.0	2-back	1.0	1.0	0.611	n	TL
158.97	2.0	2-back	0.0	1.0	0.411	t	TL
160.985	2.0	2-back	0.0	1.0	0.556	l	TR
163.001	2.0	2-back	0.0	1.0	0.542	r	BR
165.017	2.0	2-back	1.0	1.0	0.659	l	TL
167.033	2.0	2-back	0.0	1.0	0.421	z	TL
169.048	2.0	2-back	0.0	1.0	0.476	v	BL
171.064	2.0	2-back	0.0	1.0	0.395	t	BR
173.08	2.0	2-back	0.0	1.0	0.545	g	TL
175.095	2.0	2-back	1.0	0.0	0.653	t	BL
177.111	2.0	2-back	0.0	1.0	0.443	f	BR
179.127	2.0	2-back	0.0	1.0	0.519	r	BR
181.143	2.0	2-back	1.0	1.0	0.57	f	TR
183.158	2.0	2-back	0.0	1.0	0.555	z	BL
185.174	2.0	2-back	0.0	1.0	0.766	c	BR
187.19	2.0	2-back	0.0	1.0	0.673	g	TR
189.206	2.0	2-back	1.0	0.0	0.505	c	BL
191.221	2.0	2-back	0.0	1.0	0.426	p	BR
193.237	2.0	2-back	0.0	1.0	0.434	v	BR
195.253	2.0	2-back	1.0	0.0	0.649	p	TR
197.268	2.0	2-back	0.0	1.0	0.328	s	TL
199.284	2.0	2-back	0.0	1.0	0.296	t	BR
201.3	2.0	2-back	1.0	0.0	0.345	s	TR
203.316	2.0	2-back	0.0	1.0	0.331	r	TL
205.331	2.0	2-back	0.0	1.0	0.473	z	BL
207.347	2.0	2-back	1.0	0.0	0.187	r	TR
209.363	2.0	2-back	1.0	0.0	0.363	z	BR
211.379	2.0	2-back	0.0	1.0	0.328	n	TL
213.394	2.0	2-back	0.0	1.0	0.399	g	TR
215.41	2.0	2-back	1.0	0.0	0.488	n	BL
217.426	2.0	2-back	0.0	1.0	0.352	x	BR
219.441	2.0	2-back	0.0	1.0	0.24	v	TR
221.457	2.0	2-back	1.0	0.0	0.347	x	BL
223.473	2.0	2-back	0.0	1.0	0.346	l	BL
225.489	2.0	2-back	0.0	1.0	0.507	f	TL
227.504	2.0	2-back	1.0	0.0	0.63	l	BR
233.568	2.0	baseline	n/a	1.0	n/a	blackcross.bmp	n/a
235.617	2.0	baseline	1.0	1.0	0.432	redcross.bmp	n/a
237.666	2.0	baseline	n/a	1.0	n/a	blackcross.bmp	n/a
239.715	2.0	baseline	1.0	1.0	0.427	redcross.bmp	n/a
241.764	2.0	baseline	n/a	1.0	n/a	blackcross.bmp	n/a
243.813	2.0	baseline	n/a	1.0	n/a	blackcross.bmp	n/a
245.862	2.0	baseline	n/a	1.0	n/a	blackcross.bmp	n/a
247.911	2.0	baseline	1.0	1.0	0.413	redcross.bmp	n/a
249.96	2.0	baseline	n/a	1.0	n/a	blackcross.bmp	n/a
252.009	2.0	baseline	1.0	0.0	0.432	redcross.bmp	n/a
254.058	2.0	baseline	n/a	1.0	n/a	blackcross.bmp	n/a
256.107	2.0	baseline	n/a	1.0	n/a	blackcross.bmp	n/a
