onset	duration	trial_type	correct_response	accuracy	response_time	stimulus	position
4.026	1.8	no_response	n/a	1.0	n/a	r	TL
5.825	2.0	1-back	1.0	1.0	0.597	r	TR
7.824	2.0	1-back	0.0	1.0	0.57	g	BR
9.823	2.0	1-back	1.0	1.0	0.503	g	TL
11.822	2.0	1-back	0.0	1.0	0.445	f	TR
13.821	2.0	1-back	0.0	0.0	0.651	t	BL
15.82	2.0	1-back	0.0	1.0	0.642	v	TL
17.819	2.0	1-back	0.0	1.0	0.637	p	TR
19.819	2.0	1-back	1.0	1.0	0.68	p	BL
21.818	2.0	1-back	0.0	1.0	0.372	z	BR
23.817	2.0	1-back	0.0	1.0	0.541	s	TR
25.816	2.0	1-back	1.0	1.0	0.608	s	BL
27.815	2.0	1-back	0.0	1.0	0.405	c	TL
29.814	2.0	1-back	1.0	1.0	0.6	c	BR
31.813	2.0	1-back	0.0	1.0	0.615	l	BR
33.812	2.0	1-back	0.0	1.0	0.813	n	BL
35.811	2.0	1-back	0.0	1.0	0.732	v	TL
37.81	2.0	1-back	1.0	1.0	0.721	v	TR
39.809	2.0	1-back	0.0	1.0	0.644	z	BR
41.808	2.0	1-back	0.0	1.0	1.01	s	TL
43.807	2.0	1-back	0.0	1.0	0.502	x	TR
45.807	2.0	1-back	1.0	1.0	0.562	x	BL
47.806	2.0	1-back	1.0	0.0	0.785	x	BR
49.805	2.0	1-back	0.0	1.0	0.614	v	TR
51.804	2.0	1-back	0.0	1.0	0.584	z	TL
53.803	2.0	1-back	1.0	1.0	0.536	z	BR
55.802	2.0	1-back	0.0	1.0	0.621	f	BL
57.801	2.0	1-back	0.0	1.0	0.434	r	TR
59.8	2.0	1-back	1.0	0.0	1.114	r	BL
61.799	2.0	1-back	0.0	0.0	n/a	n	TL
63.798	2.0	1-back	0.0	0.0	n/a	l	BL
65.797	2.0	1-back	1.0	1.0	0.684	l	BR
67.796	2.0	1-back	0.0	1.0	0.563	s	TL
69.795	2.0	1-back	0.0	1.0	0.481	g	TR
71.794	2.0	1-back	0.0	1.0	0.652	c	BL
73.794	2.0	1-back	1.0	1.0	0.66	c	TR
75.793	2.0	1-back	0.0	1.0	0.395	f	BR
77.792	2.0	1-back	1.0	0.0	0.732	f	TL
79.791	2.0	1-back	0.0	1.0	0.585	t	TR
81.79	2.0	1-back	0.0	1.0	0.429	x	BL
83.789	2.0	1-back	0.0	1.0	0.593	p	TL
85.788	2.0	1-back	1.0	0.0	0.832	p	BL
87.787	2.0	1-back	0.0	1.0	0.434	n	BR
89.786	2.0	1-back	1.0	0.0	0.579	n	TL
91.785	2.0	1-back	0.0	1.0	0.749	g	BR
93.784	2.0	1-back	0.0	1.0	0.643	l	BL
95.783	2.0	1-back	0.0	1.0	0.611	t	TR
97.782	2.0	1-back	1.0	1.0	0.655	t	BR
103.829	2.0	baseline	1.0	1.0	0.586	redcross.bmp	n/a
105.878	2.0	baseline	n/a	1.0	n/a	blackcross.bmp	n/a
107.927	2.0	baseline	1.0	1.0	0.376	redcross.bmp	n/a
109.976	2.0	baseline	n/a	1.0	n/a	blackcross.bmp	n/a
112.026	2.0	baseline	n/a	1.0	n/a	blackcross.bmp	n/a
114.075	2.0	baseline	n/a	1.0	n/a	blackcross.bmp	n/a
116.124	2.0	baseline	1.0	1.0	0.316	redcross.bmp	n/a
118.173	2.0	baseline	n/a	1.0	n/a	blackcross.bmp	n/a
120.222	2.0	baseline	n/a	1.0	n/a	blackcross.bmp	n/a
122.271	2.0	baseline	n/a	1.0	n/a	blackcross.bmp	n/a
124.32	2.0	baseline	1.0	1.0	0.33	redcross.bmp	n/a
126.369	2.0	baseline	n/a	1.0	n/a	blackcross.bmp	n/a
132.416	1.8	no_response	n/a	1.0	n/a	v	TR
134.216	1.8	no_response	n/a	0.0	0.972	r	BR
136.015	2.0	2-back	1.0	0.0	n/a	v	TL
138.014	2.0	2-back	0.0	1.0	0.617	g	TR
140.013	2.0	2-back	0.0	1.0	0.819	p	BL
142.012	2.0	2-back	1.0	1.0	0.665	g	BR
144.011	2.0	2-back	0.0	1.0	0.761	n	TL
146.01	2.0	2-back	0.0	1.0	0.641	x	TR
148.009	2.0	2-back	0.0	1.0	0.635	l	BR
150.008	2.0	2-back	0.0	1.0	0.664	c	TL
152.007	2.0	2-back	1.0	0.0	0.734	l	BL
154.006	2.0	2-back	1.0	0.0	0.833	c	TR
156.005	2.0	2-back	0.0	1.0	0.637	t	BR
158.004	2.0	2-back	0.0	1.0	0.683	n	TL
160.004	2.0	2-back	1.0	1.0	0.602	t	BR
162.003	2.0	2-back	0.0	1.0	0.558	f	TR
164.002	2.0	2-back	0.0	0.0	0.728	n	BR
166.001	2.0	2-back	0.0	1.0	0.617	x	TL
168.0	2.0	2-back	1.0	1.0	0.811	n	BL
169.999	2.0	2-back	0.0	1.0	0.646	r	TR
171.998	2.0	2-back	0.0	1.0	0.703	f	TL
173.997	2.0	2-back	1.0	1.0	0.749	r	BR
175.996	2.0	2-back	0.0	1.0	0.4	s	TR
177.995	2.0	2-back	0.0	1.0	0.301	v	BL
179.994	2.0	2-back	0.0	1.0	0.643	p	TL
181.993	2.0	2-back	1.0	0.0	0.595	v	TR
183.992	2.0	2-back	0.0	0.0	0.974	s	BL
185.992	2.0	2-back	0.0	1.0	0.621	p	BR
187.991	2.0	2-back	1.0	1.0	0.915	s	TR
189.99	2.0	2-back	0.0	1.0	0.566	g	BL
191.989	2.0	2-back	0.0	1.0	0.614	z	TL
193.988	2.0	2-back	0.0	1.0	0.464	r	BR
195.987	2.0	2-back	1.0	0.0	0.9	z	BL
197.986	2.0	2-back	0.0	1.0	0.894	c	BL
199.985	2.0	2-back	0.0	1.0	0.782	t	BR
201.984	2.0	2-back	1.0	0.0	0.61	c	TL
203.983	2.0	2-back	1.0	0.0	0.439	t	BL
205.982	2.0	2-back	0.0	1.0	0.398	s	BR
207.981	2.0	2-back	0.0	1.0	0.567	x	BL
209.98	2.0	2-back	0.0	1.0	0.889	f	TR
211.979	2.0	2-back	1.0	0.0	0.899	x	TR
213.979	2.0	2-back	1.0	0.0	0.498	f	BR
215.978	2.0	2-back	0.0	1.0	0.619	l	TL
217.977	2.0	2-back	0.0	1.0	0.588	p	BL
219.976	2.0	2-back	1.0	1.0	0.561	l	BL
221.975	2.0	2-back	0.0	1.0	0.462	z	TL
223.974	2.0	2-back	0.0	1.0	0.672	g	TL
225.973	2.0	2-back	1.0	0.0	0.731	z	TR
232.02	2.0	baseline	n/a	1.0	n/a	blackcross.bmp	n/a
234.069	2.0	baseline	1.0	1.0	0.847	redcross.bmp	n/a
236.118	2.0	baseline	n/a	1.0	n/a	blackcross.bmp	n/a
238.167	2.0	baseline	n/a	1.0	n/a	blackcross.bmp	n/a
240.216	2.0	baseline	n/a	1.0	n/a	blackcross.bmp	n/a
242.265	2.0	baseline	1.0	1.0	0.448	redcross.bmp	n/a
244.314	2.0	baseline	n/a	1.0	n/a	blackcross.bmp	n/a
246.363	2.0	baseline	n/a	1.0	n/a	blackcross.bmp	n/a
248.412	2.0	baseline	n/a	1.0	n/a	blackcross.bmp	n/a
250.461	2.0	baseline	n/a	1.0	n/a	blackcross.bmp	n/a
252.51	2.0	baseline	1.0	1.0	0.494	redcross.bmp	n/a
254.559	2.0	baseline	1.0	1.0	0.642	redcross.bmp	n/a
