onset	duration	trial_type	correct_response	accuracy	response_time	stimulus	position
4.026	1.8	no_response	n/a	1.0	n/a	c	TR
5.825	1.8	no_response	n/a	1.0	n/a	g	BL
7.624	2.0	2-back	1.0	1.0	0.396	c	BL
9.64	2.0	2-back	0.0	1.0	0.485	p	TR
11.655	2.0	2-back	0.0	1.0	0.584	v	TL
13.671	2.0	2-back	1.0	1.0	0.571	p	TL
15.687	2.0	2-back	0.0	1.0	0.43	s	BL
17.703	2.0	2-back	0.0	1.0	0.451	x	TR
19.718	2.0	2-back	1.0	0.0	0.499	s	TR
21.734	2.0	2-back	1.0	0.0	0.444	x	TL
23.75	2.0	2-back	0.0	1.0	0.393	n	BR
25.766	2.0	2-back	0.0	1.0	0.532	f	BL
27.781	2.0	2-back	1.0	1.0	0.741	n	TL
29.797	2.0	2-back	0.0	1.0	0.692	t	TL
31.813	2.0	2-back	0.0	1.0	0.683	l	TR
33.829	2.0	2-back	0.0	1.0	0.47	r	BR
35.844	2.0	2-back	1.0	0.0	0.32	l	TL
37.86	2.0	2-back	0.0	1.0	0.427	z	TL
39.876	2.0	2-back	0.0	1.0	0.565	v	BL
41.891	2.0	2-back	0.0	1.0	0.466	t	BR
43.907	2.0	2-back	0.0	1.0	0.367	g	TL
45.923	2.0	2-back	1.0	0.0	0.473	t	BL
47.939	2.0	2-back	0.0	1.0	0.231	f	BR
49.954	2.0	2-back	0.0	0.0	0.709	r	BR
51.97	2.0	2-back	1.0	0.0	0.394	f	TR
53.986	2.0	2-back	0.0	1.0	0.825	z	BL
56.002	2.0	2-back	0.0	1.0	0.527	c	BR
58.017	2.0	2-back	0.0	1.0	0.571	g	TR
60.033	2.0	2-back	1.0	0.0	0.484	c	BL
62.049	2.0	2-back	0.0	1.0	0.348	p	BR
64.065	2.0	2-back	0.0	1.0	0.5	v	BR
66.08	2.0	2-back	1.0	0.0	0.483	p	TR
68.096	2.0	2-back	0.0	1.0	0.437	s	TL
70.112	2.0	2-back	0.0	1.0	0.694	t	BR
72.127	2.0	2-back	1.0	0.0	0.676	s	TR
74.143	2.0	2-back	0.0	1.0	0.668	r	TL
76.159	2.0	2-back	0.0	0.0	n/a	z	BL
78.175	2.0	2-back	1.0	0.0	0.409	r	TR
80.19	2.0	2-back	1.0	0.0	0.505	z	BR
82.206	2.0	2-back	0.0	1.0	0.595	n	TL
84.222	2.0	2-back	0.0	1.0	0.168	g	TR
86.238	2.0	2-back	1.0	0.0	0.338	n	BL
88.253	2.0	2-back	0.0	1.0	0.34	x	BR
90.269	2.0	2-back	0.0	1.0	0.4	v	TR
92.285	2.0	2-back	1.0	1.0	0.503	x	BL
94.301	2.0	2-back	0.0	1.0	0.744	l	BL
96.316	2.0	2-back	0.0	1.0	0.708	f	TL
98.332	2.0	2-back	1.0	0.0	0.597	l	BR
104.396	2.0	baseline	n/a	1.0	n/a	blackcross.bmp	n/a
106.445	2.0	baseline	1.0	1.0	0.633	redcross.bmp	n/a
108.494	2.0	baseline	n/a	1.0	n/a	blackcross.bmp	n/a
110.543	2.0	baseline	1.0	1.0	0.461	redcross.bmp	n/a
112.592	2.0	baseline	n/a	1.0	n/a	blackcross.bmp	n/a
114.641	2.0	baseline	n/a	1.0	n/a	blackcross.bmp	n/a
116.69	2.0	baseline	n/a	1.0	n/a	blackcross.bmp	n/a
118.739	2.0	baseline	1.0	1.0	0.724	redcross.bmp	n/a
120.788	2.0	baseline	n/a	1.0	n/a	blackcross.bmp	n/a
122.837	2.0	baseline	1.0	1.0	0.441	redcross.bmp	n/a
124.886	2.0	baseline	n/a	1.0	n/a	blackcross.bmp	n/a
126.935	2.0	baseline	n/a	1.0	n/a	blackcross.bmp	n/a
132.983	1.8	no_response	n/a	1.0	n/a	v	TR
134.782	2.0	1-back	1.0	1.0	0.56	v	BL
136.797	2.0	1-back	0.0	1.0	0.595	p	TR
138.813	2.0	1-back	0.0	1.0	0.656	g	BL
140.829	2.0	1-back	1.0	1.0	0.661	g	TL
142.845	2.0	1-back	0.0	1.0	0.683	z	BR
144.86	2.0	1-back	0.0	1.0	0.465	l	TL
146.876	2.0	1-back	0.0	1.0	0.786	t	BL
148.892	2.0	1-back	1.0	1.0	0.77	t	TR
150.908	2.0	1-back	0.0	1.0	0.702	s	BR
152.923	2.0	1-back	0.0	1.0	0.62	l	TL
154.939	2.0	1-back	0.0	1.0	0.749	x	BR
156.955	2.0	1-back	1.0	1.0	0.638	x	TR
158.971	2.0	1-back	1.0	1.0	0.659	x	TL
160.986	2.0	1-back	0.0	1.0	0.715	s	TR
163.002	2.0	1-back	1.0	1.0	0.648	s	BL
165.018	2.0	1-back	0.0	1.0	0.589	n	TR
167.033	2.0	1-back	0.0	0.0	n/a	r	TL
169.049	2.0	1-back	0.0	0.0	n/a	s	TR
171.065	2.0	1-back	0.0	1.0	0.653	t	BL
173.081	2.0	1-back	1.0	0.0	0.597	t	TR
175.096	2.0	1-back	0.0	1.0	0.517	l	BR
177.112	2.0	1-back	0.0	1.0	0.894	r	BL
179.128	2.0	1-back	0.0	1.0	0.702	f	TL
181.144	2.0	1-back	1.0	0.0	0.555	f	BL
183.159	2.0	1-back	0.0	1.0	0.345	z	BR
185.175	2.0	1-back	1.0	0.0	0.562	z	BL
187.191	2.0	1-back	0.0	1.0	0.424	c	TL
189.207	2.0	1-back	1.0	0.0	0.444	c	TR
191.222	2.0	1-back	0.0	1.0	0.419	p	BR
193.238	2.0	1-back	1.0	1.0	0.662	p	BL
195.254	2.0	1-back	0.0	1.0	0.572	n	TL
197.269	2.0	1-back	1.0	0.0	n/a	n	TR
199.285	2.0	1-back	0.0	1.0	0.685	f	BL
201.301	2.0	1-back	1.0	0.0	0.46	f	BR
203.317	2.0	1-back	0.0	1.0	0.732	l	TL
205.332	2.0	1-back	0.0	1.0	0.604	r	BR
207.348	2.0	1-back	1.0	0.0	0.514	r	TL
209.364	2.0	1-back	0.0	1.0	0.417	z	BR
211.38	2.0	1-back	0.0	1.0	0.475	n	BL
213.395	2.0	1-back	0.0	1.0	0.475	c	TL
215.411	2.0	1-back	1.0	1.0	0.655	c	TR
217.427	2.0	1-back	0.0	1.0	0.455	v	BR
219.443	2.0	1-back	1.0	0.0	0.635	v	TL
221.458	2.0	1-back	0.0	1.0	0.387	x	TR
223.474	2.0	1-back	0.0	1.0	0.507	g	BR
225.49	2.0	1-back	0.0	1.0	0.523	p	BL
227.505	2.0	1-back	0.0	1.0	0.557	g	BR
233.569	2.0	baseline	n/a	1.0	n/a	blackcross.bmp	n/a
235.618	2.0	baseline	n/a	1.0	n/a	blackcross.bmp	n/a
237.667	2.0	baseline	1.0	1.0	0.476	redcross.bmp	n/a
239.716	2.0	baseline	1.0	1.0	0.478	redcross.bmp	n/a
241.765	2.0	baseline	n/a	1.0	n/a	blackcross.bmp	n/a
243.814	2.0	baseline	n/a	1.0	n/a	blackcross.bmp	n/a
245.863	2.0	baseline	n/a	1.0	n/a	blackcross.bmp	n/a
247.912	2.0	baseline	1.0	1.0	0.526	redcross.bmp	n/a
249.961	2.0	baseline	n/a	1.0	n/a	blackcross.bmp	n/a
252.01	2.0	baseline	n/a	1.0	n/a	blackcross.bmp	n/a
254.06	2.0	baseline	1.0	1.0	0.405	redcross.bmp	n/a
256.109	2.0	baseline	n/a	1.0	n/a	blackcross.bmp	n/a
