onset	duration	trial_type	correct_response	accuracy	response_time	stimulus	position
4.026	1.8	no_response	n/a	1.0	n/a	r	TL
5.825	1.8	no_response	n/a	0.0	1.236	p	TR
7.624	2.0	2-back	0.0	1.0	0.729	x	BL
9.64	2.0	2-back	1.0	0.0	n/a	t	TR
11.655	2.0	2-back	0.0	1.0	0.78	g	TL
13.671	2.0	2-back	0.0	0.0	1.075	n	BL
15.687	2.0	2-back	1.0	1.0	0.942	z	TL
17.703	2.0	2-back	0.0	1.0	0.632	c	TR
19.718	2.0	2-back	0.0	1.0	0.741	v	BR
21.734	2.0	2-back	0.0	1.0	0.818	n	BL
23.75	2.0	2-back	1.0	1.0	0.739	g	BR
25.766	2.0	2-back	0.0	1.0	0.64	s	TL
27.781	2.0	2-back	0.0	0.0	n/a	v	TR
29.797	2.0	2-back	1.0	1.0	1.089	l	TL
31.813	2.0	2-back	1.0	0.0	0.689	f	TR
33.829	2.0	2-back	0.0	1.0	0.57	s	BR
35.844	2.0	2-back	0.0	1.0	0.804	c	TL
37.86	2.0	2-back	0.0	1.0	0.731	r	BL
39.876	2.0	2-back	1.0	1.0	0.752	s	TL
41.891	2.0	2-back	0.0	1.0	0.632	l	BR
43.907	2.0	2-back	0.0	1.0	1.088	z	BL
45.923	2.0	2-back	1.0	1.0	0.827	x	BR
47.939	2.0	2-back	0.0	1.0	0.722	f	TL
49.954	2.0	2-back	0.0	0.0	0.928	t	TL
51.97	2.0	2-back	0.0	1.0	0.554	x	TR
53.986	2.0	2-back	1.0	0.0	1.057	r	TL
56.002	2.0	2-back	0.0	1.0	0.575	l	BR
58.017	2.0	2-back	0.0	1.0	0.845	n	BL
60.033	2.0	2-back	1.0	1.0	0.668	s	BR
62.049	2.0	2-back	0.0	1.0	0.829	f	BR
64.065	2.0	2-back	0.0	1.0	1.173	g	BL
66.08	2.0	2-back	0.0	1.0	0.896	p	TR
68.096	2.0	2-back	1.0	0.0	0.812	v	BL
70.112	2.0	2-back	0.0	1.0	0.541	t	BR
72.127	2.0	2-back	1.0	1.0	0.771	t	BL
74.143	2.0	2-back	0.0	1.0	0.57	z	TL
76.159	2.0	2-back	0.0	1.0	0.606	f	TR
78.175	2.0	2-back	1.0	1.0	0.615	p	TL
80.19	2.0	2-back	1.0	0.0	0.828	g	TR
82.206	2.0	2-back	0.0	1.0	0.585	c	BL
84.222	2.0	2-back	1.0	1.0	1.084	r	TR
86.238	2.0	2-back	0.0	1.0	0.811	p	BR
88.253	2.0	2-back	0.0	0.0	n/a	x	TL
90.269	2.0	2-back	0.0	1.0	0.753	l	TR
92.285	2.0	2-back	0.0	1.0	0.665	z	BL
94.301	2.0	2-back	0.0	0.0	n/a	c	BR
96.316	2.0	2-back	1.0	0.0	0.768	n	BL
98.332	2.0	2-back	1.0	0.0	1.153	v	BR
104.396	2.0	baseline	1.0	0.0	n/a	redcross.bmp	n/a
106.445	2.0	baseline	n/a	1.0	n/a	blackcross.bmp	n/a
108.494	2.0	baseline	n/a	1.0	n/a	blackcross.bmp	n/a
110.543	2.0	baseline	n/a	1.0	n/a	blackcross.bmp	n/a
112.592	2.0	baseline	1.0	1.0	0.776	redcross.bmp	n/a
114.641	2.0	baseline	n/a	1.0	n/a	blackcross.bmp	n/a
116.69	2.0	baseline	n/a	1.0	n/a	blackcross.bmp	n/a
118.739	2.0	baseline	1.0	1.0	0.5	redcross.bmp	n/a
120.788	2.0	baseline	n/a	1.0	n/a	blackcross.bmp	n/a
122.837	2.0	baseline	n/a	1.0	n/a	blackcross.bmp	n/a
124.886	2.0	baseline	1.0	1.0	0.391	redcross.bmp	n/a
126.935	2.0	baseline	n/a	1.0	n/a	blackcross.bmp	n/a
132.983	1.8	no_response	n/a	1.0	n/a	t	TR
134.782	2.0	1-back	0.0	0.0	n/a	c	BR
136.797	2.0	1-back	0.0	1.0	0.683	n	BL
138.813	2.0	1-back	1.0	1.0	0.631	l	BL
140.829	2.0	1-back	0.0	1.0	0.72	g	TR
142.845	2.0	1-back	0.0	1.0	0.742	f	TL
144.86	2.0	1-back	1.0	1.0	0.591	p	TL
146.876	2.0	1-back	0.0	1.0	0.522	x	TR
148.892	2.0	1-back	1.0	1.0	0.516	n	TR
150.908	2.0	1-back	0.0	1.0	0.596	s	TL
152.923	2.0	1-back	0.0	1.0	0.475	r	BR
154.939	2.0	1-back	1.0	0.0	0.56	v	BR
156.955	2.0	1-back	0.0	0.0	0.587	l	TL
158.971	2.0	1-back	1.0	1.0	0.736	z	TL
160.986	2.0	1-back	0.0	1.0	0.651	c	TR
163.002	2.0	1-back	0.0	1.0	0.698	f	BL
165.018	2.0	1-back	0.0	1.0	0.665	p	TR
167.033	2.0	1-back	1.0	1.0	0.914	t	TR
169.049	2.0	1-back	0.0	1.0	0.948	g	BL
171.065	2.0	1-back	1.0	1.0	0.778	x	BL
173.081	2.0	1-back	0.0	1.0	1.086	c	TR
175.096	2.0	1-back	1.0	1.0	0.75	p	TR
177.112	2.0	1-back	0.0	1.0	0.563	z	TL
179.128	2.0	1-back	0.0	1.0	0.765	r	BL
181.144	2.0	1-back	1.0	0.0	0.858	n	BL
183.159	2.0	1-back	0.0	1.0	0.627	z	BR
185.175	2.0	1-back	0.0	1.0	1.085	f	BL
187.191	2.0	1-back	0.0	1.0	0.784	s	TL
189.207	2.0	1-back	0.0	1.0	0.594	v	BR
191.222	2.0	1-back	1.0	1.0	0.58	c	BR
193.238	2.0	1-back	0.0	1.0	0.698	z	TL
195.254	2.0	1-back	1.0	1.0	0.779	r	TL
197.269	2.0	1-back	0.0	1.0	0.595	l	TR
199.285	2.0	1-back	1.0	1.0	0.645	n	TR
201.301	2.0	1-back	0.0	1.0	0.58	v	BR
203.317	2.0	1-back	1.0	0.0	0.517	f	BR
205.332	2.0	1-back	0.0	0.0	0.53	r	TL
207.348	2.0	1-back	1.0	0.0	0.431	l	TL
209.364	2.0	1-back	0.0	1.0	0.481	x	BR
211.38	2.0	1-back	0.0	1.0	0.689	s	BL
213.395	2.0	1-back	0.0	0.0	0.673	g	TL
215.411	2.0	1-back	0.0	1.0	0.695	t	BL
217.427	2.0	1-back	0.0	1.0	0.805	p	BR
219.443	2.0	1-back	0.0	1.0	0.561	s	BL
221.458	2.0	1-back	1.0	1.0	0.545	x	BL
223.474	2.0	1-back	0.0	1.0	0.442	v	TR
225.49	2.0	1-back	0.0	1.0	0.504	t	BR
227.505	2.0	1-back	1.0	1.0	0.461	g	BR
233.569	2.0	baseline	n/a	1.0	n/a	blackcross.bmp	n/a
235.618	2.0	baseline	1.0	1.0	0.389	redcross.bmp	n/a
237.667	2.0	baseline	n/a	1.0	n/a	blackcross.bmp	n/a
239.716	2.0	baseline	1.0	1.0	0.47	redcross.bmp	n/a
241.765	2.0	baseline	1.0	0.0	n/a	redcross.bmp	n/a
243.814	2.0	baseline	n/a	1.0	n/a	blackcross.bmp	n/a
245.863	2.0	baseline	n/a	1.0	n/a	blackcross.bmp	n/a
247.912	2.0	baseline	n/a	1.0	n/a	blackcross.bmp	n/a
249.961	2.0	baseline	n/a	1.0	n/a	blackcross.bmp	n/a
252.01	2.0	baseline	1.0	1.0	0.707	redcross.bmp	n/a
254.06	2.0	baseline	n/a	1.0	n/a	blackcross.bmp	n/a
256.109	2.0	baseline	n/a	1.0	n/a	blackcross.bmp	n/a
