onset	duration	trial_type	correct_response	accuracy	response_time	stimulus	position
4.021	1.8	no_response	n/a	0.0	0.638	v	BL
5.82	1.8	no_response	n/a	0.0	0.596	c	BR
7.619	2.0	2-back	1.0	1.0	0.341	g	BL
9.619	2.0	2-back	0.0	1.0	0.434	p	TR
11.618	2.0	2-back	0.0	1.0	0.452	n	TL
13.617	2.0	2-back	1.0	0.0	0.367	x	TR
15.616	2.0	2-back	0.0	1.0	0.257	p	BL
17.615	2.0	2-back	0.0	1.0	0.504	c	TL
19.615	2.0	2-back	0.0	0.0	0.538	l	TL
21.614	2.0	2-back	0.0	1.0	0.358	v	TR
23.613	2.0	2-back	1.0	0.0	0.409	x	TL
25.612	2.0	2-back	1.0	1.0	0.292	g	TR
27.612	2.0	2-back	0.0	0.0	n/a	t	BR
29.611	2.0	2-back	0.0	1.0	0.286	z	BL
31.61	2.0	2-back	1.0	1.0	0.412	n	BR
33.609	2.0	2-back	0.0	1.0	0.246	f	TR
35.608	2.0	2-back	0.0	1.0	0.789	x	TL
37.608	2.0	2-back	0.0	1.0	0.753	n	BL
39.607	2.0	2-back	1.0	0.0	0.422	t	TL
41.606	2.0	2-back	0.0	1.0	0.549	l	BR
43.605	2.0	2-back	0.0	1.0	0.776	r	BL
45.605	2.0	2-back	1.0	0.0	0.403	f	BR
47.604	2.0	2-back	0.0	1.0	1.0	s	BR
49.603	2.0	2-back	0.0	1.0	0.341	v	TL
51.602	2.0	2-back	0.0	1.0	0.266	n	TR
53.601	2.0	2-back	1.0	0.0	0.377	p	TL
55.601	2.0	2-back	0.0	1.0	0.349	s	BL
57.6	2.0	2-back	0.0	1.0	0.288	g	BR
59.599	2.0	2-back	1.0	1.0	0.354	f	BL
61.598	2.0	2-back	0.0	1.0	0.074	r	TR
63.598	2.0	2-back	0.0	1.0	0.508	s	TL
65.597	2.0	2-back	0.0	1.0	0.261	z	BL
67.596	2.0	2-back	1.0	0.0	0.391	c	TL
69.595	2.0	2-back	0.0	1.0	0.517	r	BR
71.594	2.0	2-back	0.0	1.0	0.504	v	TR
73.594	2.0	2-back	1.0	0.0	0.471	l	BR
75.593	2.0	2-back	1.0	1.0	0.765	c	TR
77.592	2.0	2-back	0.0	1.0	0.326	s	BL
79.591	2.0	2-back	0.0	1.0	0.464	t	TL
81.591	2.0	2-back	0.0	1.0	0.541	r	TR
83.59	2.0	2-back	0.0	1.0	0.305	z	BL
85.589	2.0	2-back	1.0	0.0	0.226	l	TR
87.588	2.0	2-back	1.0	1.0	0.3	x	BL
89.588	2.0	2-back	0.0	1.0	0.128	f	BR
91.587	2.0	2-back	0.0	1.0	0.343	p	TR
93.586	2.0	2-back	1.0	0.0	0.383	g	BR
95.585	2.0	2-back	0.0	1.0	0.183	t	BL
97.584	2.0	2-back	1.0	0.0	0.372	z	BR
103.622	2.0	baseline	n/a	1.0	n/a	blackcross.bmp	n/a
105.661	2.0	baseline	n/a	1.0	n/a	blackcross.bmp	n/a
107.7	2.0	baseline	1.0	1.0	0.405	redcross.bmp	n/a
109.739	2.0	baseline	1.0	1.0	0.433	redcross.bmp	n/a
111.779	2.0	baseline	n/a	1.0	n/a	blackcross.bmp	n/a
113.818	2.0	baseline	n/a	1.0	n/a	blackcross.bmp	n/a
115.857	2.0	baseline	n/a	1.0	n/a	blackcross.bmp	n/a
117.896	2.0	baseline	1.0	1.0	0.416	redcross.bmp	n/a
119.936	2.0	baseline	n/a	1.0	n/a	blackcross.bmp	n/a
121.975	2.0	baseline	1.0	1.0	0.468	redcross.bmp	n/a
124.014	2.0	baseline	n/a	1.0	n/a	blackcross.bmp	n/a
126.053	2.0	baseline	n/a	1.0	n/a	blackcross.bmp	n/a
132.091	1.8	no_response	n/a	0.0	0.835	l	TR
133.89	2.0	1-back	1.0	1.0	0.61	x	TR
135.89	2.0	1-back	0.0	1.0	0.521	l	BL
137.889	2.0	1-back	1.0	1.0	0.369	s	BL
139.888	2.0	1-back	0.0	1.0	0.431	g	TL
141.887	2.0	1-back	0.0	1.0	0.571	r	BR
143.886	2.0	1-back	0.0	1.0	0.889	s	TL
145.886	2.0	1-back	0.0	1.0	0.641	z	BL
147.885	2.0	1-back	0.0	1.0	0.439	t	TR
149.884	2.0	1-back	1.0	1.0	0.441	x	TR
151.883	2.0	1-back	0.0	1.0	0.309	n	BR
153.883	2.0	1-back	0.0	1.0	0.486	l	TL
155.882	2.0	1-back	1.0	1.0	0.529	g	TL
157.881	2.0	1-back	0.0	1.0	0.255	r	BR
159.88	2.0	1-back	1.0	1.0	0.59	p	BR
161.879	2.0	1-back	0.0	1.0	0.222	z	TR
163.879	2.0	1-back	0.0	1.0	0.567	r	BL
165.878	2.0	1-back	1.0	1.0	0.673	x	BL
167.877	2.0	1-back	0.0	1.0	0.398	p	TR
169.876	2.0	1-back	0.0	1.0	0.697	c	BL
171.876	2.0	1-back	0.0	1.0	0.493	f	TR
173.875	2.0	1-back	1.0	1.0	0.402	l	TR
175.874	2.0	1-back	1.0	0.0	0.279	t	TR
177.873	2.0	1-back	0.0	1.0	0.575	f	TL
179.872	2.0	1-back	0.0	1.0	0.404	r	BL
181.872	2.0	1-back	1.0	1.0	0.248	s	BL
183.871	2.0	1-back	0.0	1.0	0.278	f	TR
185.87	2.0	1-back	0.0	1.0	0.447	c	BR
187.869	2.0	1-back	1.0	1.0	0.469	z	BR
189.869	2.0	1-back	0.0	1.0	0.48	v	BL
191.868	2.0	1-back	0.0	1.0	0.535	p	TL
193.867	2.0	1-back	1.0	1.0	0.568	t	TL
195.866	2.0	1-back	0.0	1.0	0.383	c	BL
197.866	2.0	1-back	0.0	1.0	0.646	p	BR
199.865	2.0	1-back	0.0	1.0	0.567	v	TL
201.864	2.0	1-back	1.0	1.0	0.765	n	TL
203.863	2.0	1-back	0.0	1.0	0.238	s	BR
205.862	2.0	1-back	1.0	1.0	0.495	z	BR
207.862	2.0	1-back	0.0	1.0	0.219	v	BL
209.861	2.0	1-back	0.0	1.0	0.339	n	BR
211.86	2.0	1-back	0.0	1.0	0.532	t	TL
213.859	2.0	1-back	1.0	1.0	0.493	g	TL
215.858	2.0	1-back	0.0	1.0	0.252	x	TR
217.858	2.0	1-back	1.0	1.0	0.441	g	TR
219.857	2.0	1-back	0.0	1.0	0.2	c	TL
221.856	2.0	1-back	0.0	0.0	0.522	v	BL
223.855	2.0	1-back	0.0	1.0	0.247	f	BR
225.855	2.0	1-back	1.0	1.0	0.537	n	BR
231.892	2.0	baseline	n/a	1.0	n/a	blackcross.bmp	n/a
233.931	2.0	baseline	n/a	1.0	n/a	blackcross.bmp	n/a
235.97	2.0	baseline	1.0	1.0	0.418	redcross.bmp	n/a
238.01	2.0	baseline	1.0	1.0	0.384	redcross.bmp	n/a
240.049	2.0	baseline	n/a	1.0	n/a	blackcross.bmp	n/a
242.088	2.0	baseline	n/a	1.0	n/a	blackcross.bmp	n/a
244.127	2.0	baseline	n/a	1.0	n/a	blackcross.bmp	n/a
246.167	2.0	baseline	n/a	1.0	n/a	blackcross.bmp	n/a
248.206	2.0	baseline	1.0	1.0	0.361	redcross.bmp	n/a
250.245	2.0	baseline	n/a	1.0	n/a	blackcross.bmp	n/a
252.284	2.0	baseline	1.0	1.0	0.374	redcross.bmp	n/a
254.323	2.0	baseline	n/a	1.0	n/a	blackcross.bmp	n/a
