onset	duration	trial_type	correct_response	accuracy	response_time	stimulus	position
4.026	1.8	no_response	n/a	1.0	n/a	c	TR
5.825	1.8	no_response	n/a	1.0	n/a	g	BL
7.624	2.0	2-back	1.0	0.0	0.664	c	BL
9.64	2.0	2-back	0.0	0.0	n/a	p	TR
11.656	2.0	2-back	0.0	1.0	0.908	v	TL
13.672	2.0	2-back	1.0	1.0	0.696	p	TL
15.687	2.0	2-back	0.0	1.0	0.659	s	BL
17.703	2.0	2-back	0.0	1.0	0.731	x	TR
19.719	2.0	2-back	1.0	1.0	0.83	s	TR
21.734	2.0	2-back	1.0	1.0	0.769	x	TL
23.75	2.0	2-back	0.0	1.0	0.733	n	BR
25.766	2.0	2-back	0.0	1.0	0.882	f	BL
27.782	2.0	2-back	1.0	1.0	0.814	n	TL
29.797	2.0	2-back	0.0	1.0	0.69	t	TL
31.813	2.0	2-back	0.0	1.0	0.777	l	TR
33.829	2.0	2-back	0.0	1.0	0.713	r	BR
35.845	2.0	2-back	1.0	1.0	0.643	l	TL
37.86	2.0	2-back	0.0	1.0	0.697	z	TL
39.876	2.0	2-back	0.0	1.0	0.789	v	BL
41.892	2.0	2-back	0.0	1.0	1.047	t	BR
43.907	2.0	2-back	0.0	1.0	0.812	g	TL
45.923	2.0	2-back	1.0	1.0	0.827	t	BL
47.939	2.0	2-back	0.0	1.0	0.822	f	BR
49.955	2.0	2-back	0.0	1.0	0.763	r	BR
51.97	2.0	2-back	1.0	1.0	0.664	f	TR
53.986	2.0	2-back	0.0	1.0	0.69	z	BL
56.002	2.0	2-back	0.0	1.0	0.703	c	BR
58.018	2.0	2-back	0.0	1.0	0.699	g	TR
60.033	2.0	2-back	1.0	0.0	0.979	c	BL
62.049	2.0	2-back	0.0	1.0	0.858	p	BR
64.065	2.0	2-back	0.0	1.0	0.829	v	BR
66.08	2.0	2-back	1.0	1.0	0.699	p	TR
68.096	2.0	2-back	0.0	1.0	0.677	s	TL
70.112	2.0	2-back	0.0	1.0	0.933	t	BR
72.128	2.0	2-back	1.0	1.0	0.747	s	TR
74.143	2.0	2-back	0.0	1.0	0.603	r	TL
76.159	2.0	2-back	0.0	1.0	0.726	z	BL
78.175	2.0	2-back	1.0	1.0	0.785	r	TR
80.191	2.0	2-back	1.0	1.0	0.835	z	BR
82.206	2.0	2-back	0.0	1.0	0.619	n	TL
84.222	2.0	2-back	0.0	1.0	0.784	g	TR
86.238	2.0	2-back	1.0	1.0	0.789	n	BL
88.253	2.0	2-back	0.0	1.0	0.548	x	BR
90.269	2.0	2-back	0.0	1.0	0.769	v	TR
92.285	2.0	2-back	1.0	1.0	0.622	x	BL
94.301	2.0	2-back	0.0	1.0	0.672	l	BL
96.316	2.0	2-back	0.0	1.0	0.746	f	TL
98.332	2.0	2-back	1.0	1.0	0.653	l	BR
104.396	2.0	baseline	n/a	1.0	n/a	blackcross.bmp	n/a
106.445	2.0	baseline	1.0	1.0	0.313	redcross.bmp	n/a
108.494	2.0	baseline	n/a	1.0	n/a	blackcross.bmp	n/a
110.543	2.0	baseline	1.0	1.0	0.345	redcross.bmp	n/a
112.592	2.0	baseline	n/a	1.0	n/a	blackcross.bmp	n/a
114.641	2.0	baseline	n/a	1.0	n/a	blackcross.bmp	n/a
116.69	2.0	baseline	n/a	1.0	n/a	blackcross.bmp	n/a
118.739	2.0	baseline	1.0	1.0	0.349	redcross.bmp	n/a
120.788	2.0	baseline	n/a	1.0	n/a	blackcross.bmp	n/a
122.837	2.0	baseline	1.0	1.0	0.379	redcross.bmp	n/a
124.886	2.0	baseline	n/a	1.0	n/a	blackcross.bmp	n/a
126.935	2.0	baseline	n/a	1.0	n/a	blackcross.bmp	n/a
132.983	1.8	no_response	n/a	1.0	n/a	v	TR
134.782	2.0	1-back	1.0	1.0	0.785	v	BL
136.797	2.0	1-back	0.0	1.0	0.672	p	TR
138.813	2.0	1-back	0.0	1.0	0.709	g	BL
140.829	2.0	1-back	1.0	1.0	0.658	g	TL
142.845	2.0	1-back	0.0	1.0	0.791	z	BR
144.86	2.0	1-back	0.0	1.0	0.594	l	TL
146.876	2.0	1-back	0.0	1.0	0.675	t	BL
148.892	2.0	1-back	1.0	1.0	0.804	t	TR
150.908	2.0	1-back	0.0	1.0	0.753	s	BR
152.923	2.0	1-back	0.0	1.0	0.736	l	TL
154.939	2.0	1-back	0.0	1.0	0.743	x	BR
156.955	2.0	1-back	1.0	1.0	0.717	x	TR
158.97	2.0	1-back	1.0	1.0	0.844	x	TL
160.986	2.0	1-back	0.0	1.0	0.745	s	TR
163.002	2.0	1-back	1.0	1.0	0.586	s	BL
165.018	2.0	1-back	0.0	1.0	0.598	n	TR
167.033	2.0	1-back	0.0	1.0	0.638	r	TL
169.049	2.0	1-back	0.0	1.0	0.87	s	TR
171.065	2.0	1-back	0.0	1.0	0.852	t	BL
173.08	2.0	1-back	1.0	1.0	0.656	t	TR
175.096	2.0	1-back	0.0	1.0	0.592	l	BR
177.112	2.0	1-back	0.0	1.0	0.639	r	BL
179.128	2.0	1-back	0.0	1.0	0.827	f	TL
181.143	2.0	1-back	1.0	1.0	0.679	f	BL
183.159	2.0	1-back	0.0	1.0	0.613	z	BR
185.175	2.0	1-back	1.0	1.0	0.608	z	BL
187.191	2.0	1-back	0.0	1.0	0.559	c	TL
189.206	2.0	1-back	1.0	1.0	0.606	c	TR
191.222	2.0	1-back	0.0	1.0	0.695	p	BR
193.238	2.0	1-back	1.0	1.0	0.472	p	BL
195.253	2.0	1-back	0.0	1.0	0.52	n	TL
197.269	2.0	1-back	1.0	1.0	0.507	n	TR
199.285	2.0	1-back	0.0	1.0	0.538	f	BL
201.301	2.0	1-back	1.0	1.0	0.478	f	BR
203.316	2.0	1-back	0.0	1.0	0.558	l	TL
205.332	2.0	1-back	0.0	1.0	0.919	r	BR
207.348	2.0	1-back	1.0	1.0	0.563	r	TL
209.364	2.0	1-back	0.0	1.0	0.537	z	BR
211.379	2.0	1-back	0.0	1.0	0.65	n	BL
213.395	2.0	1-back	0.0	1.0	0.964	c	TL
215.411	2.0	1-back	1.0	1.0	0.648	c	TR
217.426	2.0	1-back	0.0	1.0	0.492	v	BR
219.442	2.0	1-back	1.0	1.0	0.644	v	TL
221.458	2.0	1-back	0.0	1.0	0.545	x	TR
223.474	2.0	1-back	0.0	1.0	0.591	g	BR
225.489	2.0	1-back	0.0	1.0	0.717	p	BL
227.505	2.0	1-back	0.0	1.0	0.877	g	BR
233.569	2.0	baseline	n/a	1.0	n/a	blackcross.bmp	n/a
235.618	2.0	baseline	n/a	1.0	n/a	blackcross.bmp	n/a
237.667	2.0	baseline	1.0	1.0	0.335	redcross.bmp	n/a
239.716	2.0	baseline	1.0	1.0	0.415	redcross.bmp	n/a
241.765	2.0	baseline	n/a	1.0	n/a	blackcross.bmp	n/a
243.814	2.0	baseline	n/a	1.0	n/a	blackcross.bmp	n/a
245.863	2.0	baseline	n/a	1.0	n/a	blackcross.bmp	n/a
247.912	2.0	baseline	1.0	1.0	0.375	redcross.bmp	n/a
249.961	2.0	baseline	n/a	1.0	n/a	blackcross.bmp	n/a
252.01	2.0	baseline	n/a	1.0	n/a	blackcross.bmp	n/a
254.059	2.0	baseline	1.0	1.0	0.374	redcross.bmp	n/a
256.108	2.0	baseline	n/a	1.0	n/a	blackcross.bmp	n/a
