onset	duration	trial_type	correct_response	accuracy	response_time	stimulus	position
4.026	1.8	no_response	n/a	1.0	n/a	c	TR
5.825	2.0	1-back	0.0	1.0	0.776	g	BL
7.824	2.0	1-back	0.0	1.0	0.707	p	TR
9.823	2.0	1-back	1.0	1.0	0.614	p	BL
11.822	2.0	1-back	0.0	1.0	0.638	t	TL
13.821	2.0	1-back	0.0	1.0	0.599	v	BR
15.821	2.0	1-back	1.0	1.0	0.693	v	TL
17.82	2.0	1-back	0.0	1.0	0.68	s	BL
19.819	2.0	1-back	1.0	1.0	0.607	s	TR
21.818	2.0	1-back	0.0	1.0	0.625	x	BR
23.817	2.0	1-back	0.0	1.0	0.696	n	TL
25.816	2.0	1-back	1.0	1.0	0.615	n	BR
27.815	2.0	1-back	0.0	1.0	0.63	f	TR
29.814	2.0	1-back	1.0	1.0	0.626	f	TL
31.813	2.0	1-back	0.0	1.0	0.594	l	TR
33.812	2.0	1-back	0.0	1.0	0.799	r	BL
35.811	2.0	1-back	0.0	1.0	0.665	z	TR
37.81	2.0	1-back	1.0	1.0	0.647	z	TL
39.809	2.0	1-back	0.0	1.0	0.597	c	TR
41.808	2.0	1-back	1.0	1.0	0.578	c	BL
43.808	2.0	1-back	0.0	1.0	0.669	g	TR
45.807	2.0	1-back	1.0	1.0	0.658	g	BR
47.806	2.0	1-back	0.0	1.0	0.61	x	BL
49.805	2.0	1-back	0.0	1.0	0.606	t	TL
51.804	2.0	1-back	1.0	1.0	0.589	t	BL
53.803	2.0	1-back	0.0	1.0	0.597	r	BR
55.802	2.0	1-back	0.0	1.0	0.635	p	BL
57.801	2.0	1-back	0.0	1.0	0.678	v	TL
59.8	2.0	1-back	0.0	1.0	0.705	s	TR
61.799	2.0	1-back	1.0	1.0	0.661	s	BR
63.798	2.0	1-back	0.0	1.0	0.609	x	BL
65.797	2.0	1-back	1.0	1.0	0.599	x	TL
67.796	2.0	1-back	0.0	1.0	0.609	l	TR
69.795	2.0	1-back	1.0	1.0	0.624	l	BL
71.795	2.0	1-back	0.0	1.0	0.594	n	BR
73.794	2.0	1-back	1.0	1.0	0.616	n	TL
75.793	2.0	1-back	0.0	1.0	0.603	z	BR
77.792	2.0	1-back	1.0	1.0	0.609	z	TL
79.791	2.0	1-back	0.0	1.0	0.639	c	BR
81.79	2.0	1-back	0.0	1.0	0.608	g	BL
83.789	2.0	1-back	0.0	1.0	0.673	p	TL
85.788	2.0	1-back	0.0	1.0	0.652	t	TR
87.787	2.0	1-back	0.0	1.0	0.627	v	BR
89.786	2.0	1-back	0.0	1.0	0.586	f	TL
91.785	2.0	1-back	1.0	1.0	0.66	f	TR
93.784	2.0	1-back	0.0	1.0	0.631	l	BR
95.783	2.0	1-back	0.0	1.0	0.668	r	BL
97.783	2.0	1-back	1.0	1.0	0.656	r	BR
103.829	2.0	baseline	1.0	1.0	0.482	redcross.bmp	n/a
105.878	2.0	baseline	n/a	1.0	n/a	blackcross.bmp	n/a
107.928	2.0	baseline	1.0	1.0	0.367	redcross.bmp	n/a
109.977	2.0	baseline	n/a	1.0	n/a	blackcross.bmp	n/a
112.026	2.0	baseline	n/a	1.0	n/a	blackcross.bmp	n/a
114.075	2.0	baseline	1.0	1.0	0.347	redcross.bmp	n/a
116.124	2.0	baseline	n/a	1.0	n/a	blackcross.bmp	n/a
118.173	2.0	baseline	1.0	1.0	0.566	redcross.bmp	n/a
120.222	2.0	baseline	n/a	1.0	n/a	blackcross.bmp	n/a
122.271	2.0	baseline	n/a	1.0	n/a	blackcross.bmp	n/a
124.32	2.0	baseline	n/a	1.0	n/a	blackcross.bmp	n/a
126.369	2.0	baseline	n/a	1.0	n/a	blackcross.bmp	n/a
132.416	1.8	no_response	n/a	1.0	n/a	r	TR
134.216	1.8	no_response	n/a	1.0	n/a	p	BL
136.015	2.0	2-back	0.0	1.0	0.712	s	BL
138.014	2.0	2-back	1.0	1.0	0.525	p	TR
140.013	2.0	2-back	0.0	1.0	0.615	c	TL
142.012	2.0	2-back	0.0	1.0	0.673	g	TL
144.011	2.0	2-back	1.0	1.0	0.688	c	BL
146.01	2.0	2-back	0.0	1.0	0.863	f	TR
148.009	2.0	2-back	0.0	1.0	0.773	x	TR
150.008	2.0	2-back	0.0	1.0	0.811	z	TL
152.007	2.0	2-back	1.0	1.0	0.699	x	BR
154.006	2.0	2-back	0.0	1.0	0.721	g	BL
156.006	2.0	2-back	0.0	1.0	0.791	v	TL
158.005	2.0	2-back	1.0	1.0	0.673	g	TL
160.004	2.0	2-back	1.0	1.0	0.881	v	TR
162.003	2.0	2-back	0.0	1.0	0.673	z	BR
164.002	2.0	2-back	0.0	1.0	0.725	n	TL
166.001	2.0	2-back	1.0	1.0	0.725	z	TL
168.0	2.0	2-back	0.0	1.0	0.499	s	BL
169.999	2.0	2-back	1.0	1.0	0.64	z	BR
171.998	2.0	2-back	0.0	1.0	0.604	t	TL
173.997	2.0	2-back	0.0	1.0	0.756	f	BL
175.996	2.0	2-back	1.0	0.0	0.755	t	BR
177.995	2.0	2-back	0.0	1.0	0.804	r	BR
179.994	2.0	2-back	0.0	1.0	0.64	c	TR
181.993	2.0	2-back	1.0	1.0	0.496	r	BL
183.993	2.0	2-back	0.0	1.0	0.615	f	BR
185.992	2.0	2-back	0.0	1.0	0.709	t	TR
187.991	2.0	2-back	1.0	1.0	0.555	f	BL
189.99	2.0	2-back	0.0	1.0	0.458	c	BR
191.989	2.0	2-back	0.0	1.0	0.506	l	BR
193.988	2.0	2-back	0.0	1.0	0.566	n	TR
195.987	2.0	2-back	1.0	1.0	0.427	l	TL
197.986	2.0	2-back	0.0	1.0	0.416	s	BR
199.985	2.0	2-back	0.0	1.0	0.573	g	TR
201.984	2.0	2-back	1.0	1.0	0.477	s	TL
203.983	2.0	2-back	0.0	1.0	0.448	l	BL
205.982	2.0	2-back	0.0	1.0	0.647	r	TR
207.981	2.0	2-back	0.0	1.0	0.582	x	BR
209.981	2.0	2-back	0.0	1.0	0.531	t	TL
211.98	2.0	2-back	1.0	1.0	0.691	x	TR
213.979	2.0	2-back	0.0	1.0	0.556	n	BL
215.978	2.0	2-back	0.0	1.0	0.483	p	BR
217.977	2.0	2-back	1.0	1.0	0.629	n	TR
219.976	2.0	2-back	1.0	1.0	0.694	p	BL
221.975	2.0	2-back	0.0	1.0	0.58	v	BL
223.974	2.0	2-back	0.0	1.0	0.595	l	TL
225.973	2.0	2-back	1.0	1.0	0.589	v	BR
232.02	2.0	baseline	n/a	1.0	n/a	blackcross.bmp	n/a
234.069	2.0	baseline	1.0	1.0	0.46	n/a	n/a
236.118	2.0	baseline	n/a	1.0	n/a	blackcross.bmp	n/a
238.167	2.0	baseline	n/a	1.0	n/a	blackcross.bmp	n/a
240.216	2.0	baseline	n/a	1.0	n/a	blackcross.bmp	n/a
242.265	2.0	baseline	1.0	1.0	0.37	n/a	n/a
244.314	2.0	baseline	n/a	1.0	n/a	blackcross.bmp	n/a
246.363	2.0	baseline	n/a	1.0	n/a	blackcross.bmp	n/a
248.412	2.0	baseline	1.0	1.0	0.45	n/a	n/a
250.461	2.0	baseline	1.0	1.0	0.749	n/a	n/a
252.51	2.0	baseline	n/a	1.0	n/a	blackcross.bmp	n/a
254.56	2.0	baseline	n/a	1.0	n/a	blackcross.bmp	n/a
