onset	duration	trial_type	correct_response	accuracy	response_time	stimulus	position
4.021	1.8	no_response	n/a	1.0	n/a	r	TL
5.82	1.8	no_response	n/a	1.0	n/a	p	TR
7.619	2.0	2-back	0.0	1.0	0.777	x	BL
9.632	2.0	2-back	1.0	1.0	1.158	t	TR
11.644	2.0	2-back	0.0	1.0	0.835	g	TL
13.657	2.0	2-back	0.0	1.0	0.96	n	BL
15.669	2.0	2-back	1.0	0.0	0.935	z	TL
17.682	2.0	2-back	0.0	1.0	0.754	c	TR
19.695	2.0	2-back	0.0	1.0	0.796	v	BR
21.707	2.0	2-back	0.0	1.0	0.757	n	BL
23.72	2.0	2-back	1.0	1.0	0.861	g	BR
25.732	2.0	2-back	0.0	1.0	0.844	s	TL
27.745	2.0	2-back	0.0	1.0	0.98	v	TR
29.757	2.0	2-back	1.0	1.0	0.614	l	TL
31.77	2.0	2-back	1.0	1.0	0.864	f	TR
33.782	2.0	2-back	0.0	1.0	0.546	s	BR
35.795	2.0	2-back	0.0	1.0	0.881	c	TL
37.808	2.0	2-back	0.0	1.0	0.927	r	BL
39.82	2.0	2-back	1.0	1.0	0.974	s	TL
41.833	2.0	2-back	0.0	1.0	0.746	l	BR
43.845	2.0	2-back	0.0	0.0	0.907	z	BL
45.858	2.0	2-back	1.0	0.0	0.705	x	BR
47.87	2.0	2-back	0.0	1.0	0.707	f	TL
49.883	2.0	2-back	0.0	0.0	0.874	t	TL
51.895	2.0	2-back	0.0	1.0	0.731	x	TR
53.908	2.0	2-back	1.0	0.0	0.729	r	TL
55.921	2.0	2-back	0.0	1.0	0.862	l	BR
57.933	2.0	2-back	0.0	1.0	1.022	n	BL
59.946	2.0	2-back	1.0	1.0	0.932	s	BR
61.958	2.0	2-back	0.0	0.0	0.844	f	BR
63.971	2.0	2-back	0.0	1.0	0.795	g	BL
65.983	2.0	2-back	0.0	1.0	0.796	p	TR
67.996	2.0	2-back	1.0	0.0	0.906	v	BL
70.008	2.0	2-back	0.0	1.0	0.827	t	BR
72.021	2.0	2-back	1.0	1.0	0.809	t	BL
74.033	2.0	2-back	0.0	1.0	0.78	z	TL
76.046	2.0	2-back	0.0	1.0	0.885	f	TR
78.059	2.0	2-back	1.0	1.0	0.932	p	TL
80.071	2.0	2-back	1.0	0.0	0.997	g	TR
82.084	2.0	2-back	0.0	1.0	0.758	c	BL
84.096	2.0	2-back	1.0	1.0	0.777	r	TR
86.109	2.0	2-back	0.0	1.0	0.781	p	BR
88.121	2.0	2-back	0.0	1.0	0.8	x	TL
90.134	2.0	2-back	0.0	0.0	0.655	l	TR
92.146	2.0	2-back	0.0	1.0	0.517	z	BL
94.159	2.0	2-back	0.0	1.0	0.714	c	BR
96.172	2.0	2-back	1.0	0.0	0.62	n	BL
98.184	2.0	2-back	1.0	0.0	0.942	v	BR
104.235	2.0	baseline	1.0	1.0	0.793	redcross.bmp	n/a
106.274	2.0	baseline	n/a	1.0	n/a	blackcross.bmp	n/a
108.313	2.0	baseline	n/a	1.0	n/a	blackcross.bmp	n/a
110.353	2.0	baseline	n/a	1.0	n/a	blackcross.bmp	n/a
112.392	2.0	baseline	1.0	1.0	0.372	redcross.bmp	n/a
114.431	2.0	baseline	n/a	1.0	n/a	blackcross.bmp	n/a
116.47	2.0	baseline	n/a	1.0	n/a	blackcross.bmp	n/a
118.509	2.0	baseline	1.0	0.0	n/a	redcross.bmp	n/a
120.549	2.0	baseline	n/a	0.0	0.105	blackcross.bmp	n/a
122.588	2.0	baseline	n/a	1.0	n/a	blackcross.bmp	n/a
124.627	2.0	baseline	1.0	1.0	0.534	redcross.bmp	n/a
126.666	2.0	baseline	n/a	1.0	n/a	blackcross.bmp	n/a
132.704	1.8	no_response	n/a	1.0	n/a	t	TR
134.503	2.0	1-back	0.0	1.0	1.153	c	BR
136.516	2.0	1-back	0.0	1.0	0.819	n	BL
138.528	2.0	1-back	1.0	1.0	0.686	l	BL
140.541	2.0	1-back	0.0	1.0	0.758	g	TR
142.554	2.0	1-back	0.0	1.0	0.657	f	TL
144.566	2.0	1-back	1.0	1.0	0.662	p	TL
146.579	2.0	1-back	0.0	1.0	0.676	x	TR
148.591	2.0	1-back	1.0	1.0	0.685	n	TR
150.604	2.0	1-back	0.0	1.0	0.637	s	TL
152.616	2.0	1-back	0.0	0.0	0.879	r	BR
154.629	2.0	1-back	1.0	1.0	0.805	v	BR
156.641	2.0	1-back	0.0	1.0	0.795	l	TL
158.654	2.0	1-back	1.0	1.0	0.734	z	TL
160.667	2.0	1-back	0.0	1.0	0.653	c	TR
162.679	2.0	1-back	0.0	1.0	0.873	f	BL
164.692	2.0	1-back	0.0	1.0	0.941	p	TR
166.704	2.0	1-back	1.0	1.0	0.95	t	TR
168.717	2.0	1-back	0.0	1.0	0.605	g	BL
170.729	2.0	1-back	1.0	1.0	0.926	x	BL
172.742	2.0	1-back	0.0	1.0	0.841	c	TR
174.754	2.0	1-back	1.0	1.0	1.006	p	TR
176.767	2.0	1-back	0.0	1.0	0.966	z	TL
178.78	2.0	1-back	0.0	1.0	0.953	r	BL
180.792	2.0	1-back	1.0	1.0	0.84	n	BL
182.805	2.0	1-back	0.0	1.0	0.749	z	BR
184.817	2.0	1-back	0.0	1.0	0.935	f	BL
186.83	2.0	1-back	0.0	1.0	0.89	s	TL
188.842	2.0	1-back	0.0	1.0	0.902	v	BR
190.855	2.0	1-back	1.0	1.0	0.751	c	BR
192.867	2.0	1-back	0.0	1.0	0.63	z	TL
194.88	2.0	1-back	1.0	1.0	0.797	r	TL
196.893	2.0	1-back	0.0	1.0	0.631	l	TR
198.905	2.0	1-back	1.0	1.0	0.814	n	TR
200.918	2.0	1-back	0.0	1.0	0.687	v	BR
202.93	2.0	1-back	1.0	1.0	0.757	f	BR
204.943	2.0	1-back	0.0	1.0	0.691	r	TL
206.955	2.0	1-back	1.0	0.0	0.873	l	TL
208.968	2.0	1-back	0.0	1.0	0.775	x	BR
210.98	2.0	1-back	0.0	1.0	0.693	s	BL
212.993	2.0	1-back	0.0	1.0	0.829	g	TL
215.006	2.0	1-back	0.0	1.0	0.793	t	BL
217.018	2.0	1-back	0.0	1.0	0.695	p	BR
219.031	2.0	1-back	0.0	1.0	0.737	s	BL
221.043	2.0	1-back	1.0	1.0	0.676	x	BL
223.056	2.0	1-back	0.0	1.0	0.599	v	TR
225.068	2.0	1-back	0.0	1.0	0.628	t	BR
227.081	2.0	1-back	1.0	1.0	0.721	g	BR
233.132	2.0	baseline	n/a	1.0	n/a	blackcross.bmp	n/a
235.171	2.0	baseline	1.0	0.0	n/a	redcross.bmp	n/a
237.21	2.0	baseline	n/a	1.0	n/a	blackcross.bmp	n/a
239.249	2.0	baseline	1.0	1.0	0.532	redcross.bmp	n/a
241.288	2.0	baseline	1.0	1.0	0.921	redcross.bmp	n/a
243.328	2.0	baseline	n/a	1.0	n/a	blackcross.bmp	n/a
245.367	2.0	baseline	n/a	1.0	n/a	blackcross.bmp	n/a
247.406	2.0	baseline	n/a	1.0	n/a	blackcross.bmp	n/a
249.445	2.0	baseline	n/a	1.0	n/a	blackcross.bmp	n/a
251.484	2.0	baseline	1.0	1.0	0.433	redcross.bmp	n/a
253.524	2.0	baseline	n/a	1.0	n/a	blackcross.bmp	n/a
255.563	2.0	baseline	n/a	1.0	n/a	blackcross.bmp	n/a
